// General information: 
//  MT Manager version: 2021.0.0 
//  XDA version: 2021.0.0 build 5908 rev 109668 built on 2021-04-19
// Device information: 
//  DeviceId: 00B47ACA
//  ProductCode: MTW2-3A7G6
//  Firmware Version: 4.4.0
//  Hardware Version: 2.0.0
// Device settings: 
//  Filter Profile: human(46.1)
//  Option Flags: Orientation Smoother Disabled, Position/Velocity Smoother Disabled, Continuous Zero Rotation Update Disabled, AHS Disabled, ICC Disabled
// Coordinate system: ENU
PacketCounter	Acc_X	Acc_Y	Acc_Z	FreeAcc_E	FreeAcc_N	FreeAcc_U	Quat_q0	Quat_q1	Quat_q2	Quat_q3
04744	1.333074	-2.100944	9.443138	0.128104	-0.071696	-0.048347	-0.689846	0.127195	-0.040634	0.711536
04745	1.228496	-2.126759	9.355427	0.085524	0.021278	-0.140638	-0.689927	0.127195	-0.040728	0.711452
04746	1.192672	-2.154261	9.382767	0.066812	0.059831	-0.112606	-0.690003	0.127177	-0.040811	0.711377
04747	1.101173	-2.209050	9.472806	0.036841	0.161882	-0.024993	-0.690083	0.127138	-0.040929	0.711299
04748	1.133810	-2.345879	9.636161	-0.057688	0.153752	0.168160	-0.690113	0.127138	-0.040995	0.711266
04749	1.127162	-2.440512	9.727375	-0.127517	0.174879	0.276989	-0.690153	0.127161	-0.041025	0.711221
04750	1.109860	-2.456030	9.692307	-0.149582	0.188549	0.244487	-0.690191	0.127217	-0.041042	0.711173
04751	1.091143	-2.413732	9.584734	-0.132352	0.192712	0.128599	-0.690253	0.127274	-0.041019	0.711104
04752	1.185740	-2.263390	9.500605	-0.006529	0.083263	0.025170	-0.690324	0.127339	-0.040976	0.711027
04753	1.320489	-2.154815	9.488602	0.094737	-0.055655	0.006091	-0.690411	0.127366	-0.040944	0.710939
04754	1.373997	-2.066645	9.450610	0.171003	-0.116026	-0.043849	-0.690501	0.127426	-0.040872	0.710845
04755	1.345681	-2.103906	9.504614	0.148024	-0.078487	0.013141	-0.690591	0.127487	-0.040837	0.710749
04756	1.302095	-2.216855	9.499053	0.038047	-0.030456	0.028021	-0.690633	0.127523	-0.040844	0.710701
04757	1.274157	-2.315017	9.528579	-0.049708	0.004473	0.075392	-0.690652	0.127490	-0.040894	0.710685
04758	1.233231	-2.438167	9.550244	-0.163981	0.051534	0.119237	-0.690665	0.127421	-0.040940	0.710683
04759	1.207022	-2.377897	9.610703	-0.091526	0.080496	0.160379	-0.690689	0.127323	-0.040984	0.710675
04760	1.207004	-2.330355	9.565579	-0.056386	0.070931	0.105957	-0.690728	0.127234	-0.041045	0.710648
04761	1.145183	-2.239053	9.580708	0.036368	0.128431	0.091704	-0.690785	0.127180	-0.041075	0.710601
04762	1.064996	-2.209624	9.606297	0.071837	0.209235	0.099359	-0.690847	0.127191	-0.041071	0.710539
04763	1.084424	-2.258000	9.519574	0.003979	0.182227	0.029244	-0.690880	0.127220	-0.040964	0.710508
04764	1.226880	-2.219297	9.510160	0.036470	0.040055	0.029606	-0.690916	0.127232	-0.040841	0.710478
04765	1.314445	-2.210791	9.466180	0.032094	-0.050617	-0.003491	-0.690917	0.127259	-0.040713	0.710480
04766	1.298528	-2.328644	9.549509	-0.064261	-0.017472	0.101820	-0.690905	0.127297	-0.040594	0.710491
04767	1.297179	-2.374381	9.595260	-0.099085	-0.006688	0.156239	-0.690886	0.127326	-0.040504	0.710510
04768	1.247622	-2.414498	9.587747	-0.140175	0.044688	0.151730	-0.690862	0.127330	-0.040434	0.710536
04769	1.257233	-2.327243	9.620724	-0.048753	0.035999	0.164855	-0.690871	0.127286	-0.040404	0.710537
04770	1.213620	-2.223810	9.573547	0.040647	0.068820	0.090071	-0.690896	0.127250	-0.040401	0.710519
04771	1.191506	-2.119736	9.490962	0.122587	0.075705	-0.016231	-0.690892	0.127221	-0.040406	0.710528
04772	1.114364	-2.153529	9.394887	0.067700	0.141693	-0.111207	-0.690889	0.127192	-0.040365	0.710539
04773	1.106823	-2.188534	9.413981	0.037087	0.153351	-0.085772	-0.690870	0.127171	-0.040301	0.710565
04774	1.149998	-2.182020	9.440777	0.047742	0.114471	-0.055813	-0.690856	0.127151	-0.040213	0.710586
04775	1.193197	-2.175393	9.467591	0.058443	0.075480	-0.025848	-0.690815	0.127125	-0.040144	0.710635
04776	1.252100	-2.261896	9.550451	-0.008369	0.031147	0.081453	-0.690763	0.127080	-0.040141	0.710694
04777	1.331864	-2.347636	9.598072	-0.082582	-0.039176	0.157262	-0.690701	0.127013	-0.040155	0.710765
04778	1.306404	-2.397696	9.582387	-0.135463	-0.014616	0.150205	-0.690639	0.126946	-0.040173	0.710836
04779	1.193243	-2.289766	9.517046	-0.044964	0.084467	0.047935	-0.690591	0.126910	-0.040149	0.710891
04780	1.157581	-2.150141	9.450842	0.075126	0.106348	-0.052331	-0.690548	0.126912	-0.040087	0.710936
04781	1.160625	-2.102287	9.405317	0.110312	0.096752	-0.106755	-0.690504	0.126924	-0.040020	0.710981
04782	1.178377	-2.089707	9.343242	0.107259	0.072446	-0.167229	-0.690450	0.126956	-0.039944	0.711031
04783	1.210275	-2.109132	9.361790	0.091498	0.045405	-0.140776	-0.690381	0.126973	-0.039872	0.711099
04784	1.220298	-2.129965	9.415577	0.083144	0.044365	-0.082832	-0.690306	0.127017	-0.039845	0.711166
04785	1.233175	-2.211917	9.444686	0.010085	0.040259	-0.034463	-0.690207	0.127085	-0.039791	0.711252
04786	1.200718	-2.346353	9.492868	-0.108664	0.085934	0.038325	-0.690107	0.127155	-0.039793	0.711337
04787	1.170156	-2.434148	9.495373	-0.192366	0.121294	0.056697	-0.690042	0.127191	-0.039797	0.711394
04788	1.157859	-2.349430	9.563174	-0.093548	0.138956	0.101278	-0.689993	0.127241	-0.039798	0.711432
04789	1.169497	-2.217083	9.549953	0.032928	0.120481	0.059961	-0.689979	0.127295	-0.039828	0.711434
04790	1.221564	-2.129835	9.511806	0.109548	0.060511	0.010103	-0.689966	0.127347	-0.039883	0.711435
04791	1.273447	-2.150395	9.494766	0.086449	0.007557	0.005098	-0.689926	0.127389	-0.039966	0.711461
04792	1.277840	-2.165448	9.424322	0.056902	-0.004926	-0.058887	-0.689857	0.127439	-0.040015	0.711516
04793	1.261340	-2.181588	9.389059	0.034770	0.008367	-0.091398	-0.689788	0.127536	-0.040045	0.711565
04794	1.236074	-2.173592	9.396967	0.046542	0.035833	-0.088906	-0.689717	0.127688	-0.040035	0.711607
04795	1.211937	-2.273455	9.425715	-0.041442	0.070236	-0.041565	-0.689641	0.127859	-0.040030	0.711649
04796	1.228436	-2.307337	9.505567	-0.054019	0.068344	0.045359	-0.689574	0.128041	-0.039985	0.711684
04797	1.259533	-2.268501	9.547907	-0.004959	0.044371	0.081405	-0.689529	0.128230	-0.039929	0.711697
04798	1.309709	-2.170617	9.482557	0.076002	-0.014664	0.002597	-0.689503	0.128393	-0.039878	0.711696
04799	1.225372	-2.180055	9.526007	0.080172	0.077260	0.035489	-0.689492	0.128548	-0.039881	0.711678
04800	1.246293	-2.230473	9.438598	0.012465	0.049729	-0.034510	-0.689484	0.128666	-0.039886	0.711664
04801	1.215634	-2.208930	9.516859	0.053912	0.090365	0.031939	-0.689477	0.128781	-0.039897	0.711650
04802	1.219222	-2.270901	9.491725	-0.010679	0.087890	0.022377	-0.689455	0.128876	-0.039901	0.711654
04803	1.288631	-2.273477	9.606531	0.014130	0.034644	0.142879	-0.689425	0.128963	-0.039934	0.711665
04804	1.400447	-2.273715	9.650808	0.024265	-0.070362	0.200483	-0.689393	0.129008	-0.040017	0.711683
04805	1.435035	-2.306237	9.695847	0.004436	-0.098280	0.255968	-0.689356	0.129035	-0.040120	0.711708
04806	1.333298	-2.283535	9.659197	0.021179	-0.003677	0.201894	-0.689324	0.129082	-0.040193	0.711726
04807	1.227488	-2.250053	9.595611	0.042143	0.091648	0.118830	-0.689316	0.129156	-0.040239	0.711719
04808	1.165156	-2.210942	9.558554	0.073849	0.147655	0.065802	-0.689308	0.129228	-0.040249	0.711713
04809	1.182909	-2.307422	9.516913	-0.028860	0.129937	0.050242	-0.689275	0.129284	-0.040266	0.711733
04810	1.226142	-2.302541	9.543295	-0.017901	0.091190	0.080288	-0.689244	0.129341	-0.040238	0.711755
04811	1.279911	-2.321472	9.526237	-0.040803	0.038119	0.075360	-0.689209	0.129412	-0.040185	0.711778
04812	1.223530	-2.291939	9.516149	-0.013361	0.093278	0.051299	-0.689202	0.129488	-0.040124	0.711775
04813	1.186547	-2.308277	9.516252	-0.028266	0.132418	0.050211	-0.689209	0.129565	-0.040077	0.711757
04814	1.166109	-2.312496	9.454282	-0.046279	0.146521	-0.011296	-0.689235	0.129616	-0.040035	0.711724
04815	1.144819	-2.313860	9.489530	-0.038832	0.173065	0.020129	-0.689274	0.129652	-0.040004	0.711682
04816	1.230536	-2.302977	9.542624	-0.016962	0.094934	0.080255	-0.689321	0.129669	-0.039991	0.711634
04817	1.346705	-2.312093	9.614229	-0.010763	-0.010967	0.166919	-0.689372	0.129641	-0.040001	0.711589
04818	1.323742	-2.312795	9.649857	-0.003323	0.015726	0.198347	-0.689448	0.129590	-0.039978	0.711526
04819	1.349117	-2.321097	9.641812	-0.014632	-0.010541	0.195900	-0.689495	0.129548	-0.039942	0.711491
04820	1.295529	-2.300995	9.659127	0.008513	0.043829	0.200789	-0.689533	0.129502	-0.039885	0.711466
04821	1.257150	-2.318362	9.562752	-0.031876	0.070317	0.106763	-0.689546	0.129440	-0.039835	0.711467
04822	1.270546	-2.348784	9.643822	-0.044394	0.068514	0.193696	-0.689548	0.129364	-0.039781	0.711482
04823	1.329380	-2.329225	9.608888	-0.036323	0.004516	0.163380	-0.689557	0.129280	-0.039726	0.711492
04824	1.333625	-2.337640	9.636363	-0.040382	0.004377	0.192360	-0.689576	0.129216	-0.039613	0.711491
04825	1.371562	-2.318624	9.636791	-0.025030	-0.033596	0.193470	-0.689616	0.129125	-0.039495	0.711475
04826	1.318798	-2.300026	9.557214	-0.027374	0.008110	0.105421	-0.689660	0.129054	-0.039398	0.711451
04827	1.265299	-2.279000	9.574677	-0.004278	0.062388	0.110283	-0.689715	0.128976	-0.039321	0.711416
04828	1.238167	-2.270167	9.486689	-0.018109	0.077224	0.019794	-0.689788	0.128855	-0.039257	0.711371
04829	1.177528	-2.130525	9.456587	0.108960	0.125821	-0.049233	-0.689854	0.128698	-0.039219	0.711337
04830	1.127711	-2.122882	9.403965	0.102327	0.166692	-0.108325	-0.689915	0.128566	-0.039176	0.711304
04831	1.203989	-2.040935	9.358646	0.167966	0.080204	-0.160506	-0.689975	0.128414	-0.039135	0.711275
04832	1.302468	-2.062261	9.396194	0.152031	-0.012980	-0.106271	-0.690020	0.128289	-0.039083	0.711257
04833	1.371340	-2.171034	9.436254	0.052003	-0.072150	-0.033683	-0.690063	0.128180	-0.038995	0.711240
04834	1.328300	-2.278458	9.528511	-0.033209	-0.012917	0.074021	-0.690116	0.128114	-0.038873	0.711207
04835	1.285097	-2.278371	9.599588	-0.018621	0.039769	0.136816	-0.690173	0.128073	-0.038731	0.711167
04836	1.283932	-2.326080	9.548647	-0.078972	0.037670	0.098324	-0.690228	0.128037	-0.038625	0.711125
04837	1.238777	-2.376784	9.568173	-0.124916	0.087553	0.122621	-0.690285	0.127993	-0.038554	0.711082
04838	1.262388	-2.326893	9.487712	-0.096880	0.052161	0.036811	-0.690328	0.127947	-0.038469	0.711054
04839	1.287475	-2.226769	9.458703	-0.008307	0.019485	-0.010508	-0.690398	0.127883	-0.038384	0.711001
04840	1.314089	-2.076609	9.481054	0.140757	-0.010194	-0.019342	-0.690478	0.127840	-0.038293	0.710936
04841	1.263087	-2.009571	9.452372	0.198790	0.034191	-0.068950	-0.690528	0.127825	-0.038242	0.710894
04842	1.233076	-2.096359	9.455191	0.114731	0.068913	-0.050622	-0.690577	0.127860	-0.038171	0.710844
04843	1.274889	-2.140402	9.430441	0.065480	0.027317	-0.058978	-0.690587	0.127896	-0.038131	0.710829
04844	1.266566	-2.226685	9.397876	-0.025751	0.035896	-0.072028	-0.690566	0.127921	-0.038127	0.710845
04845	1.262227	-2.324038	9.392195	-0.121172	0.043517	-0.056094	-0.690566	0.127932	-0.038179	0.710840
04846	1.406064	-2.295999	9.409987	-0.090639	-0.098960	-0.026039	-0.690590	0.127917	-0.038270	0.710815
04847	1.457050	-2.262545	9.541985	-0.027228	-0.136343	0.100549	-0.690611	0.127866	-0.038410	0.710797
04848	1.379091	-2.246142	9.594094	0.002798	-0.055741	0.136713	-0.690618	0.127815	-0.038536	0.710792
04849	1.283088	-2.187341	9.538444	0.049636	0.027965	0.056935	-0.690640	0.127826	-0.038624	0.710763
04850	1.169864	-2.190751	9.493218	0.038842	0.134111	-0.000977	-0.690643	0.127889	-0.038680	0.710746
04851	1.129302	-2.150639	9.420589	0.062936	0.163999	-0.085549	-0.690626	0.127964	-0.038668	0.710750
04852	1.207245	-2.226417	9.441038	-0.006020	0.093912	-0.038296	-0.690619	0.128056	-0.038660	0.710741
04853	1.357043	-2.259028	9.434083	-0.039990	-0.052431	-0.017671	-0.690613	0.128168	-0.038629	0.710728
04854	1.539480	-2.261767	9.497053	-0.028939	-0.223337	0.068046	-0.690629	0.128283	-0.038629	0.710692
04855	1.689615	-2.245175	9.541473	-0.002284	-0.366628	0.127177	-0.690656	0.128361	-0.038718	0.710647
04856	1.570438	-2.393428	9.535914	-0.143827	-0.243712	0.139617	-0.690688	0.128410	-0.038853	0.710600
04857	1.361945	-2.334921	9.531981	-0.082775	-0.041576	0.094726	-0.690705	0.128444	-0.038990	0.710570
04858	1.197759	-2.378206	9.575686	-0.110424	0.127496	0.124908	-0.690715	0.128510	-0.039093	0.710542
04859	1.128040	-2.376283	9.556915	-0.110185	0.194220	0.097104	-0.690696	0.128589	-0.039111	0.710545
04860	0.998684	-2.283782	9.552547	-0.018521	0.319618	0.054515	-0.690671	0.128706	-0.039063	0.710551
04861	1.055508	-2.253184	9.586976	0.019540	0.269467	0.088224	-0.690644	0.128878	-0.038954	0.710552
04862	1.183481	-2.228951	9.542544	0.032154	0.140215	0.056877	-0.690629	0.129063	-0.038819	0.710540
04863	1.315840	-2.215021	9.525020	0.040645	0.010068	0.054531	-0.690621	0.129192	-0.038707	0.710531
04864	1.386771	-2.218754	9.543087	0.040788	-0.055384	0.082351	-0.690620	0.129255	-0.038679	0.710521
04865	1.446957	-2.201362	9.507533	0.049370	-0.119379	0.052209	-0.690608	0.129305	-0.038678	0.710524
04866	1.372778	-2.187686	9.462225	0.053735	-0.051751	-0.004598	-0.690571	0.129340	-0.038704	0.710553
04867	1.266244	-2.151538	9.495470	0.098938	0.056619	0.004820	-0.690529	0.129389	-0.038755	0.710581
04868	1.149458	-2.248995	9.541370	0.017547	0.182470	0.055614	-0.690475	0.129433	-0.038812	0.710623
04869	1.041943	-2.263014	9.522948	0.002160	0.287602	0.026555	-0.690421	0.129500	-0.038826	0.710663
04870	1.009682	-2.290725	9.549728	-0.017417	0.325919	0.054311	-0.690381	0.129598	-0.038756	0.710688
04871	1.100494	-2.182289	9.608902	0.100939	0.241512	0.098717	-0.690359	0.129702	-0.038652	0.710696
04872	1.205229	-2.158567	9.599948	0.120840	0.138461	0.098781	-0.690340	0.129810	-0.038567	0.710698
04873	1.318831	-2.209161	9.495961	0.046523	0.017246	0.025530	-0.690344	0.129920	-0.038491	0.710678
04874	1.358868	-2.192789	9.495467	0.062203	-0.020454	0.026746	-0.690350	0.130027	-0.038391	0.710659
04875	1.372007	-2.167211	9.503378	0.089130	-0.031298	0.030304	-0.690379	0.130111	-0.038338	0.710619
04876	1.313544	-2.188608	9.441461	0.055394	0.020761	-0.032448	-0.690392	0.130173	-0.038349	0.710594
04877	1.237294	-2.222346	9.441699	0.024484	0.098114	-0.034898	-0.690401	0.130208	-0.038370	0.710578
04878	1.181014	-2.301503	9.452254	-0.048602	0.159239	-0.014264	-0.690400	0.130268	-0.038362	0.710567
04879	1.129052	-2.283199	9.468840	-0.026067	0.213746	-0.009611	-0.690411	0.130350	-0.038257	0.710547
04880	1.144008	-2.207402	9.528386	0.061313	0.206431	0.032369	-0.690417	0.130477	-0.038139	0.710524
04881	1.163299	-2.195074	9.466044	0.058641	0.181567	-0.027944	-0.690445	0.130571	-0.038035	0.710486
04882	1.218608	-2.213393	9.449002	0.036416	0.128298	-0.032608	-0.690454	0.130701	-0.037930	0.710458
04883	1.316772	-2.225811	9.458571	0.025631	0.035769	-0.007038	-0.690472	0.130796	-0.037821	0.710430
04884	1.365958	-2.230427	9.511882	0.033020	-0.003434	0.052172	-0.690495	0.130863	-0.037757	0.710399
04885	1.326129	-2.189362	9.439527	0.056907	0.026420	-0.032470	-0.690498	0.130950	-0.037709	0.710382
04886	1.210495	-2.181745	9.367535	0.049548	0.133105	-0.119605	-0.690493	0.131057	-0.037663	0.710369
04887	1.172475	-2.245940	9.412935	-0.001039	0.181874	-0.066446	-0.690480	0.131182	-0.037588	0.710363
04888	1.167793	-2.282816	9.431255	-0.031857	0.193153	-0.041033	-0.690465	0.131291	-0.037525	0.710361
04889	1.146250	-2.332262	9.511599	-0.059874	0.229784	0.044669	-0.690442	0.131439	-0.037477	0.710359
04890	1.202515	-2.301597	9.545899	-0.021516	0.180007	0.078456	-0.690452	0.131561	-0.037413	0.710329
04891	1.318107	-2.252758	9.544716	0.025570	0.065541	0.082209	-0.690471	0.131686	-0.037379	0.710289
04892	1.292645	-2.245119	9.552648	0.036854	0.093238	0.084510	-0.690513	0.131809	-0.037396	0.710225
04893	1.304969	-2.224189	9.463173	0.038430	0.069066	-0.004764	-0.690547	0.131922	-0.037453	0.710168
04894	1.250857	-2.257863	9.427884	0.000311	0.120170	-0.038582	-0.690576	0.132035	-0.037492	0.710116
04895	1.224769	-2.250700	9.435795	0.011584	0.147739	-0.036288	-0.690594	0.132159	-0.037519	0.710075
04896	1.272073	-2.307291	9.436972	-0.041449	0.104961	-0.015471	-0.690599	0.132298	-0.037535	0.710043
04897	1.410034	-2.363016	9.518055	-0.075587	-0.016857	0.094856	-0.690604	0.132443	-0.037565	0.710010
04898	1.500066	-2.411231	9.642789	-0.091674	-0.085265	0.238777	-0.690606	0.132597	-0.037561	0.709980
04899	1.496549	-2.402374	9.615288	-0.087296	-0.083966	0.209795	-0.690621	0.132735	-0.037567	0.709939
04900	1.424840	-2.340552	9.621387	-0.022882	-0.012772	0.191250	-0.690660	0.132893	-0.037556	0.709872
04901	1.356578	-2.339264	9.602645	-0.023157	0.053876	0.163275	-0.690724	0.133020	-0.037573	0.709785
04902	1.335881	-2.345185	9.540305	-0.041456	0.067335	0.101728	-0.690794	0.133118	-0.037586	0.709697
04903	1.328457	-2.225578	9.589837	0.088071	0.076836	0.120556	-0.690882	0.133178	-0.037611	0.709599
04904	1.321258	-2.262993	9.608282	0.057256	0.088072	0.145973	-0.690968	0.133208	-0.037636	0.709509
04905	1.308785	-2.289658	9.599961	0.030620	0.099923	0.142401	-0.691034	0.133238	-0.037693	0.709436
04906	1.331001	-2.396769	9.585056	-0.075932	0.079598	0.156127	-0.691104	0.133248	-0.037756	0.709362
04907	1.316548	-2.472894	9.525127	-0.163073	0.087638	0.114159	-0.691182	0.133223	-0.037815	0.709288
04908	1.246303	-2.420325	9.558923	-0.102969	0.158158	0.124548	-0.691299	0.133193	-0.037863	0.709177
04909	1.209202	-2.340569	9.565634	-0.022936	0.191024	0.107231	-0.691425	0.133186	-0.037925	0.709052
04910	1.230169	-2.289886	9.582212	0.030834	0.169221	0.114352	-0.691561	0.133174	-0.037968	0.708919
04911	1.234542	-2.253640	9.563891	0.061974	0.159291	0.088918	-0.691695	0.133109	-0.038018	0.708798
04912	1.270215	-2.236769	9.564078	0.077910	0.121707	0.090205	-0.691837	0.133054	-0.038028	0.708669
04913	1.223774	-2.289378	9.583153	0.031281	0.171054	0.114319	-0.691956	0.133017	-0.038041	0.708559
04914	1.262535	-2.379949	9.603685	-0.052589	0.138619	0.160624	-0.692080	0.133008	-0.037984	0.708443
04915	1.287131	-2.435087	9.640954	-0.098590	0.121876	0.212769	-0.692196	0.132993	-0.037885	0.708337
04916	1.319973	-2.406102	9.614420	-0.078457	0.085012	0.185079	-0.692341	0.132934	-0.037805	0.708211
04917	1.363506	-2.351114	9.596310	-0.031458	0.036822	0.160963	-0.692494	0.132838	-0.037731	0.708084
04918	1.375163	-2.276194	9.559870	0.030691	0.016562	0.110116	-0.692652	0.132733	-0.037685	0.707951
04919	1.388705	-2.311581	9.446896	-0.032306	-0.012431	0.011495	-0.692807	0.132602	-0.037649	0.707826
04920	1.328160	-2.280171	9.437837	-0.006013	0.043102	-0.012990	-0.692947	0.132431	-0.037624	0.707722
04921	1.258785	-2.334867	9.395819	-0.071230	0.105004	-0.050441	-0.693102	0.132225	-0.037651	0.707607
04922	1.259891	-2.343212	9.423743	-0.075244	0.104945	-0.021456	-0.693224	0.132052	-0.037633	0.707522
04923	1.306540	-2.453103	9.498967	-0.167337	0.070805	0.082873	-0.693349	0.131911	-0.037555	0.707430
04924	1.260595	-2.450191	9.667572	-0.128222	0.137913	0.238134	-0.693530	0.131773	-0.037429	0.707284
04925	1.431081	-2.373815	9.827067	-0.020606	-0.013345	0.397780	-0.693702	0.131608	-0.037338	0.707151
04926	1.467797	-2.306938	9.782673	0.030623	-0.060594	0.344697	-0.693866	0.131368	-0.037330	0.707035
04927	1.451123	-2.224575	9.657973	0.078438	-0.067567	0.203310	-0.694026	0.131117	-0.037335	0.706924
04928	1.378570	-2.220791	9.543801	0.052452	-0.014608	0.082440	-0.694175	0.130902	-0.037310	0.706819
04929	1.359302	-2.235516	9.412951	0.004584	-0.015964	-0.042907	-0.694321	0.130658	-0.037305	0.706722
04930	1.403476	-2.239983	9.370890	-0.012972	-0.068742	-0.076366	-0.694430	0.130405	-0.037291	0.706661
04931	1.385451	-2.309250	9.409803	-0.074814	-0.047350	-0.025520	-0.694532	0.130144	-0.037306	0.706609
04932	1.328632	-2.287204	9.427742	-0.052804	0.007508	-0.021056	-0.694630	0.129930	-0.037237	0.706556
04933	1.285836	-2.347096	9.474692	-0.103746	0.055975	0.032013	-0.694731	0.129762	-0.037171	0.706490
04934	1.246142	-2.360540	9.475750	-0.119560	0.094859	0.030664	-0.694825	0.129654	-0.037072	0.706423
04935	1.160774	-2.319330	9.474396	-0.082529	0.177420	0.008340	-0.694948	0.129544	-0.036976	0.706327
04936	1.211420	-2.227573	9.437548	-0.004394	0.119097	-0.041160	-0.695070	0.129438	-0.036875	0.706233
04937	1.269094	-2.099674	9.381822	0.104806	0.050286	-0.116074	-0.695211	0.129346	-0.036773	0.706115
04938	1.321056	-2.116182	9.365987	0.083162	-0.003223	-0.120515	-0.695330	0.129269	-0.036725	0.706015
04939	1.421282	-2.141198	9.306722	0.043930	-0.110371	-0.158375	-0.695429	0.129198	-0.036679	0.705932
04940	1.467150	-2.144493	9.361031	0.051811	-0.149284	-0.099021	-0.695521	0.129114	-0.036653	0.705859
04941	1.591927	-2.175744	9.390828	0.027096	-0.269636	-0.046301	-0.695573	0.128995	-0.036672	0.705829
04942	1.624975	-2.204868	9.437258	0.008137	-0.297460	0.009495	-0.695597	0.128874	-0.036709	0.705825
04943	1.528628	-2.248521	9.500189	-0.021098	-0.194800	0.066976	-0.695608	0.128766	-0.036775	0.705830
04944	1.401141	-2.273057	9.544127	-0.035387	-0.064205	0.097659	-0.695609	0.128701	-0.036865	0.705836
04945	1.321535	-2.306440	9.544595	-0.067278	0.012727	0.094922	-0.695606	0.128606	-0.037035	0.705848
04946	1.212533	-2.273549	9.480457	-0.049045	0.107929	0.010971	-0.695608	0.128526	-0.037196	0.705852
04947	1.194963	-2.242665	9.399937	-0.036474	0.110592	-0.076017	-0.695586	0.128435	-0.037343	0.705883
04948	1.131738	-2.156961	9.316830	0.028797	0.157269	-0.184029	-0.695562	0.128394	-0.037471	0.705907
04949	1.167638	-2.141705	9.316840	0.044998	0.119680	-0.182659	-0.695536	0.128415	-0.037557	0.705924
04950	1.180237	-2.174888	9.397453	0.032703	0.118288	-0.095684	-0.695510	0.128475	-0.037624	0.705935
04951	1.213148	-2.253707	9.488598	-0.021440	0.099989	0.014518	-0.695464	0.128547	-0.037674	0.705964
04952	1.223682	-2.384011	9.563293	-0.129410	0.103835	0.117567	-0.695422	0.128645	-0.037713	0.705986
04953	1.239833	-2.370686	9.597940	-0.106485	0.092688	0.150136	-0.695381	0.128738	-0.037768	0.706007
04954	1.257843	-2.310636	9.586939	-0.048390	0.072041	0.128292	-0.695369	0.128819	-0.037847	0.705999
04955	1.201933	-2.236632	9.530202	0.012702	0.117965	0.049252	-0.695357	0.128901	-0.037910	0.705992
04956	1.332639	-2.176947	9.468125	0.058647	-0.021542	-0.006745	-0.695353	0.128947	-0.038000	0.705983
04957	1.402530	-2.134927	9.441225	0.095201	-0.096550	-0.032946	-0.695342	0.128959	-0.038106	0.705987
04958	1.406456	-2.150019	9.371045	0.065923	-0.110639	-0.096690	-0.695326	0.128947	-0.038232	0.705998
04959	1.382578	-2.102923	9.457609	0.133260	-0.079081	-0.027179	-0.695305	0.128936	-0.038369	0.706013
04960	1.321829	-2.230112	9.513498	0.024101	-0.009355	0.047669	-0.695266	0.128964	-0.038485	0.706040
04961	1.327001	-2.299990	9.612774	-0.019188	-0.000521	0.160073	-0.695219	0.128994	-0.038578	0.706076
04962	1.268444	-2.376926	9.719941	-0.067885	0.073703	0.273240	-0.695193	0.129062	-0.038605	0.706088
04963	1.290656	-2.376509	9.684647	-0.074362	0.047804	0.242071	-0.695157	0.129129	-0.038619	0.706109
04964	1.270679	-2.331929	9.673881	-0.032395	0.065380	0.218821	-0.695151	0.129169	-0.038655	0.706106
04965	1.165306	-2.298929	9.609077	-0.014519	0.160442	0.134746	-0.695144	0.129193	-0.038673	0.706108
04966	1.124702	-2.258104	9.536410	0.008739	0.190330	0.049909	-0.695138	0.129212	-0.038666	0.706111
04967	1.106861	-2.165352	9.480372	0.085885	0.198223	-0.027767	-0.695134	0.129205	-0.038642	0.706118
04968	1.186264	-2.192014	9.456327	0.053775	0.117409	-0.034262	-0.695130	0.129174	-0.038610	0.706129
04969	1.212627	-2.200292	9.448471	0.043183	0.090817	-0.036429	-0.695110	0.129175	-0.038565	0.706150
04970	1.274845	-2.239230	9.486288	0.013599	0.035815	0.017245	-0.695100	0.129176	-0.038543	0.706162
04971	1.309983	-2.269067	9.532252	-0.005219	0.007877	0.073083	-0.695067	0.129147	-0.038537	0.706200
04972	1.322786	-2.300611	9.613206	-0.017449	0.006561	0.160074	-0.695032	0.129145	-0.038550	0.706233
04973	1.321938	-2.300558	9.613336	-0.017282	0.007144	0.160074	-0.695005	0.129133	-0.038570	0.706262
04974	1.341014	-2.345954	9.624046	-0.058922	-0.009110	0.183338	-0.694989	0.129134	-0.038574	0.706277
04975	1.293354	-2.341174	9.570135	-0.066757	0.030880	0.123908	-0.694979	0.129127	-0.038577	0.706288
04976	1.216825	-2.374126	9.569901	-0.099134	0.107725	0.121028	-0.694971	0.129114	-0.038564	0.706299
04977	1.122970	-2.264498	9.565071	0.005959	0.196610	0.078769	-0.694966	0.129087	-0.038557	0.706309
04978	1.066239	-2.238121	9.457371	0.006286	0.238029	-0.038680	-0.694967	0.129075	-0.038541	0.706311
04979	1.099488	-2.210048	9.430860	0.026811	0.201194	-0.066246	-0.694949	0.129070	-0.038476	0.706333
04980	1.142509	-2.202827	9.458203	0.039089	0.163154	-0.035815	-0.694946	0.129084	-0.038379	0.706338
04981	1.208028	-2.194104	9.450499	0.044848	0.098467	-0.036510	-0.694936	0.129111	-0.038293	0.706348
04982	1.248952	-2.284177	9.471767	-0.038545	0.065160	0.010041	-0.694936	0.129156	-0.038211	0.706345
04983	1.261220	-2.257817	9.480038	-0.011415	0.054872	0.013623	-0.694954	0.129199	-0.038136	0.706323
04984	1.253319	-2.186103	9.477704	0.057454	0.061723	-0.006077	-0.694979	0.129237	-0.038069	0.706295
04985	1.244400	-2.164687	9.423872	0.065847	0.063617	-0.064079	-0.695001	0.129255	-0.038065	0.706270
04986	1.206382	-2.181580	9.423644	0.049650	0.102362	-0.065545	-0.695018	0.129301	-0.038046	0.706246
04987	1.186962	-2.136248	9.412946	0.091541	0.119976	-0.088840	-0.695005	0.129360	-0.037992	0.706251
04988	1.234819	-2.140665	9.466906	0.099781	0.081329	-0.029387	-0.694979	0.129415	-0.037944	0.706270
04989	1.238179	-2.198321	9.539290	0.060596	0.090791	0.054016	-0.694920	0.129486	-0.037903	0.706317
04990	1.253102	-2.280445	9.568270	-0.012106	0.084609	0.102714	-0.694857	0.129603	-0.037838	0.706361
04991	1.266854	-2.255233	9.576065	0.015039	0.074371	0.106297	-0.694808	0.129763	-0.037743	0.706384
04992	1.296107	-2.264983	9.567470	0.004561	0.047846	0.104178	-0.694793	0.129899	-0.037681	0.706378
04993	1.262065	-2.235589	9.521273	0.023563	0.076944	0.048288	-0.694777	0.130011	-0.037642	0.706374
04994	1.276539	-2.163791	9.483572	0.085923	0.057339	-0.002539	-0.694752	0.130120	-0.037633	0.706380
04995	1.250515	-2.155952	9.491310	0.096682	0.085158	-0.000436	-0.694742	0.130200	-0.037645	0.706374
04996	1.295215	-2.153600	9.421021	0.083849	0.032686	-0.062655	-0.694718	0.130282	-0.037633	0.706384
04997	1.242442	-2.136758	9.436870	0.105193	0.087735	-0.058450	-0.694684	0.130382	-0.037653	0.706397
04998	1.205352	-2.204949	9.384648	0.028421	0.121401	-0.098227	-0.694648	0.130518	-0.037639	0.706408
04999	1.189318	-2.268723	9.394398	-0.029562	0.142872	-0.076414	-0.694617	0.130677	-0.037616	0.706410
05000	1.189499	-2.317702	9.439187	-0.064664	0.153033	-0.022013	-0.694578	0.130871	-0.037597	0.706414
05001	1.254427	-2.309148	9.527577	-0.033396	0.102918	0.070064	-0.694558	0.131043	-0.037592	0.706402
05002	1.401015	-2.230289	9.597836	0.061901	-0.033170	0.139727	-0.694562	0.131184	-0.037596	0.706371
05003	1.397413	-2.221594	9.570335	0.066188	-0.031944	0.110727	-0.694587	0.131320	-0.037617	0.706321
05004	1.360578	-2.240229	9.569595	0.049889	0.006752	0.109228	-0.694591	0.131447	-0.037609	0.706294
05005	1.296437	-2.299153	9.525541	-0.016348	0.067433	0.071541	-0.694594	0.131506	-0.037617	0.706279
05006	1.285063	-2.325525	9.517118	-0.043225	0.078850	0.067945	-0.694601	0.131528	-0.037630	0.706267
05007	1.300044	-2.310476	9.552412	-0.020150	0.068059	0.100534	-0.694631	0.131511	-0.037637	0.706241
05008	1.313197	-2.342446	9.633192	-0.032318	0.066855	0.187533	-0.694671	0.131533	-0.037630	0.706197
05009	1.230867	-2.363081	9.703010	-0.035806	0.158661	0.248184	-0.694719	0.131564	-0.037624	0.706145
05010	1.262291	-2.382846	9.721720	-0.050303	0.131465	0.275096	-0.694800	0.131618	-0.037577	0.706057
05011	1.253660	-2.312050	9.719449	0.018536	0.138522	0.255351	-0.694878	0.131687	-0.037555	0.705969
05012	1.295355	-2.251127	9.576938	0.045187	0.077125	0.109775	-0.694965	0.131733	-0.037521	0.705877
05013	1.330336	-2.226284	9.453112	0.040732	0.025674	-0.010385	-0.695034	0.131759	-0.037488	0.705806
05014	1.378794	-2.233149	9.410084	0.023976	-0.027553	-0.043533	-0.695100	0.131752	-0.037464	0.705744
05015	1.415475	-2.215748	9.410576	0.040693	-0.064940	-0.042008	-0.695171	0.131697	-0.037474	0.705683
05016	1.356327	-2.341634	9.466438	-0.069120	0.003869	0.032694	-0.695233	0.131657	-0.037506	0.705627
05017	1.270213	-2.408997	9.582045	-0.107972	0.105119	0.147713	-0.695311	0.131589	-0.037559	0.705561
05018	1.233155	-2.433588	9.706168	-0.103260	0.157872	0.267845	-0.695401	0.131555	-0.037569	0.705478
05019	1.185037	-2.328754	9.755793	0.009471	0.208295	0.284809	-0.695515	0.131504	-0.037536	0.705377
05020	1.208124	-2.278755	9.675713	0.038462	0.172913	0.199322	-0.695643	0.131473	-0.037480	0.705260
05021	1.222522	-2.207212	9.541820	0.075670	0.138644	0.055835	-0.695777	0.131440	-0.037392	0.705138
05022	1.219555	-2.197604	9.418224	0.054664	0.125166	-0.065838	-0.695898	0.131406	-0.037289	0.705031
05023	1.317385	-2.160054	9.384146	0.081643	0.023205	-0.093822	-0.696004	0.131350	-0.037160	0.704943
05024	1.426599	-2.251118	9.424798	0.000634	-0.076472	-0.018624	-0.696101	0.131276	-0.037057	0.704867
05025	1.545958	-2.266518	9.525554	0.007219	-0.181492	0.098431	-0.696168	0.131134	-0.037024	0.704828
05026	1.579543	-2.294593	9.572182	-0.011222	-0.209316	0.154401	-0.696249	0.131015	-0.037007	0.704771
05027	1.527908	-2.285688	9.616084	0.005767	-0.154749	0.187511	-0.696352	0.130875	-0.037039	0.704694
05028	1.444171	-2.307639	9.589515	-0.023228	-0.077612	0.155415	-0.696438	0.130746	-0.037106	0.704630
05029	1.344137	-2.295097	9.579271	-0.014743	0.016089	0.128949	-0.696547	0.130570	-0.037209	0.704549
05030	1.190284	-2.264387	9.585113	0.014537	0.164513	0.106554	-0.696642	0.130395	-0.037288	0.704483
05031	1.190674	-2.273236	9.612972	0.010578	0.164490	0.135547	-0.696742	0.130205	-0.037311	0.704419
05032	1.205203	-2.208647	9.603580	0.068943	0.144609	0.113728	-0.696826	0.130049	-0.037283	0.704366
05033	1.245377	-2.249671	9.580189	0.021185	0.101172	0.106049	-0.696892	0.129915	-0.037208	0.704329
05034	1.311194	-2.191964	9.527660	0.062854	0.027288	0.051163	-0.696920	0.129835	-0.037089	0.704322
05035	1.335443	-2.244918	9.566027	0.017351	0.009939	0.103538	-0.696962	0.129730	-0.036972	0.704306
05036	1.372413	-2.225206	9.567104	0.034193	-0.027248	0.105106	-0.697014	0.129620	-0.036896	0.704279
05037	1.424162	-2.240520	9.552007	0.013586	-0.081296	0.101052	-0.697068	0.129474	-0.036853	0.704255
05038	1.417384	-2.177326	9.577435	0.078311	-0.074395	0.110282	-0.697118	0.129323	-0.036822	0.704234
05039	1.332295	-2.140653	9.478166	0.088490	-0.006204	-0.005284	-0.697167	0.129175	-0.036816	0.704213
05040	1.316208	-2.106705	9.398167	0.100895	-0.003709	-0.092298	-0.697205	0.129015	-0.036797	0.704206
05041	1.191069	-2.183903	9.292809	-0.001440	0.106046	-0.193274	-0.697219	0.128854	-0.036796	0.704222
05042	1.150748	-2.198473	9.293345	-0.018054	0.144593	-0.194864	-0.697230	0.128711	-0.036771	0.704239
05043	1.128978	-2.255031	9.401711	-0.051009	0.180655	-0.080437	-0.697227	0.128592	-0.036712	0.704266
05044	1.186388	-2.385265	9.531953	-0.150304	0.144176	0.082349	-0.697213	0.128529	-0.036608	0.704297
05045	1.184726	-2.379458	9.629594	-0.124974	0.159777	0.174972	-0.697215	0.128502	-0.036452	0.704308
05046	1.252721	-2.271686	9.628120	-0.022690	0.091642	0.158353	-0.697250	0.128479	-0.036263	0.704287
05047	1.353794	-2.136746	9.599870	0.100485	-0.013833	0.114329	-0.697294	0.128454	-0.036135	0.704255
05048	1.404657	-2.095517	9.511749	0.119330	-0.076540	0.026902	-0.697331	0.128386	-0.036105	0.704232
05049	1.471953	-2.146727	9.480446	0.061415	-0.147461	0.017288	-0.697336	0.128265	-0.036123	0.704248
05050	1.469184	-2.144739	9.481325	0.061590	-0.146752	0.017298	-0.697324	0.128093	-0.036130	0.704291
05051	1.336807	-2.158656	9.497380	0.048797	-0.015778	0.018103	-0.697318	0.127933	-0.036177	0.704324
05052	1.263191	-2.201229	9.524442	0.011249	0.060018	0.043900	-0.697276	0.127837	-0.036152	0.704384
05053	1.255528	-2.235815	9.543783	-0.019807	0.070508	0.069299	-0.697236	0.127776	-0.036107	0.704437
05054	1.239774	-2.249464	9.509027	-0.042718	0.082261	0.036685	-0.697202	0.127736	-0.036022	0.704482
05055	1.246919	-2.211291	9.490581	-0.011376	0.072954	0.011278	-0.697171	0.127733	-0.035907	0.704519
05056	1.218993	-2.143593	9.425820	0.038401	0.092278	-0.070150	-0.697156	0.127761	-0.035792	0.704535
05057	1.277936	-2.120187	9.488525	0.074357	0.043442	-0.006924	-0.697153	0.127775	-0.035677	0.704541
05058	1.258823	-2.123711	9.426543	0.055516	0.055758	-0.068546	-0.697164	0.127767	-0.035586	0.704536
05059	1.247601	-2.097728	9.469946	0.088990	0.072697	-0.033953	-0.697193	0.127721	-0.035506	0.704520
05060	1.235876	-2.122131	9.462191	0.061989	0.083853	-0.037565	-0.697199	0.127660	-0.035487	0.704526
05061	1.250310	-2.155671	9.446623	0.024726	0.067520	-0.043158	-0.697200	0.127584	-0.035477	0.704540
05062	1.213674	-2.228518	9.519622	-0.031379	0.114743	0.038624	-0.697188	0.127524	-0.035445	0.704564
05063	1.208631	-2.320609	9.611778	-0.101819	0.133903	0.147433	-0.697189	0.127469	-0.035407	0.704574
05064	1.261067	-2.286840	9.647715	-0.061731	0.085810	0.181669	-0.697209	0.127435	-0.035370	0.704563
05065	1.262000	-2.188813	9.653382	0.034158	0.083098	0.165451	-0.697234	0.127402	-0.035340	0.704546
05066	1.315043	-2.101809	9.519199	0.088466	0.011069	0.023681	-0.697268	0.127412	-0.035276	0.704513
05067	1.310629	-2.090589	9.492350	0.092688	0.012245	-0.005329	-0.697306	0.127406	-0.035228	0.704479
05068	1.323936	-2.067373	9.403668	0.094816	-0.012729	-0.094320	-0.697330	0.127396	-0.035176	0.704460
05069	1.343871	-2.111754	9.414931	0.053525	-0.029680	-0.070887	-0.697346	0.127378	-0.035152	0.704448
05070	1.352496	-2.182236	9.418044	-0.014919	-0.036145	-0.051057	-0.697350	0.127354	-0.035145	0.704450
05071	1.266862	-2.248675	9.533503	-0.054714	0.065135	0.063644	-0.697354	0.127323	-0.035163	0.704450
05072	1.171771	-2.294613	9.594887	-0.086412	0.167642	0.120317	-0.697369	0.127278	-0.035214	0.704440
05073	1.047447	-2.274642	9.591118	-0.068577	0.288735	0.095522	-0.697401	0.127248	-0.035230	0.704413
05074	1.023025	-2.121495	9.558592	0.072759	0.304424	0.026827	-0.697455	0.127208	-0.035204	0.704369
05075	1.117865	-2.027883	9.451859	0.140040	0.193976	-0.084258	-0.697530	0.127202	-0.035160	0.704297
05076	1.246899	-2.010652	9.437208	0.153737	0.064386	-0.084862	-0.697580	0.127207	-0.035097	0.704251
05077	1.320973	-2.072590	9.432875	0.092099	-0.007405	-0.065319	-0.697636	0.127205	-0.035030	0.704199
05078	1.341676	-2.116652	9.444138	0.050834	-0.024301	-0.041870	-0.697695	0.127217	-0.034932	0.704143
05079	1.324393	-2.127321	9.506186	0.053031	0.002604	0.018094	-0.697735	0.127224	-0.034835	0.704106
05080	1.361080	-2.206267	9.501472	-0.025567	-0.031379	0.035992	-0.697764	0.127238	-0.034779	0.704078
05081	1.314022	-2.255321	9.617238	-0.048520	0.032164	0.152301	-0.697795	0.127216	-0.034754	0.704053
05082	1.263972	-2.247684	9.660043	-0.032130	0.087145	0.185188	-0.697859	0.127215	-0.034761	0.703990
05083	1.284772	-2.195493	9.676574	0.022368	0.067107	0.192407	-0.697921	0.127181	-0.034745	0.703935
05084	1.301657	-2.183054	9.614979	0.020483	0.041503	0.132448	-0.697998	0.127161	-0.034738	0.703863
05085	1.272206	-2.167005	9.498884	0.009684	0.054594	0.012797	-0.698051	0.127145	-0.034709	0.703814
05086	1.265775	-2.149457	9.347881	-0.007200	0.040899	-0.137797	-0.698096	0.127169	-0.034665	0.703767
05087	1.281291	-2.133436	9.383160	0.016067	0.030645	-0.105177	-0.698147	0.127187	-0.034608	0.703716
05088	1.330389	-2.089950	9.391735	0.060462	-0.016665	-0.099882	-0.698202	0.127232	-0.034542	0.703657
05089	1.348952	-2.131051	9.499863	0.044379	-0.018223	0.016155	-0.698246	0.127286	-0.034463	0.703607
05090	1.425636	-2.200431	9.619410	0.004009	-0.075060	0.157355	-0.698306	0.127351	-0.034413	0.703538
05091	1.450724	-2.256099	9.657474	-0.041247	-0.092685	0.209842	-0.698353	0.127383	-0.034396	0.703486
05092	1.388025	-2.268195	9.567900	-0.073202	-0.042392	0.117513	-0.698429	0.127369	-0.034419	0.703413
05093	1.259134	-2.238242	9.536981	-0.051737	0.079275	0.063556	-0.698495	0.127328	-0.034477	0.703352
05094	1.270468	-2.216203	9.448325	-0.049530	0.054139	-0.025394	-0.698566	0.127284	-0.034535	0.703286
05095	1.248004	-2.171027	9.437501	-0.008045	0.072439	-0.048877	-0.698640	0.127232	-0.034567	0.703221
05096	1.253118	-2.134615	9.418827	0.023347	0.063420	-0.074277	-0.698707	0.127238	-0.034566	0.703153
05097	1.317478	-2.126304	9.411512	0.030535	-0.001109	-0.074488	-0.698744	0.127275	-0.034522	0.703111
05098	1.424853	-2.215054	9.550431	-0.023864	-0.085915	0.093848	-0.698758	0.127333	-0.034491	0.703088
05099	1.445653	-2.260593	9.561387	-0.065032	-0.103057	0.117341	-0.698761	0.127397	-0.034478	0.703075
05100	1.395037	-2.300205	9.649717	-0.084114	-0.038814	0.204574	-0.698775	0.127461	-0.034416	0.703053
05101	1.335724	-2.318833	9.684009	-0.095107	0.026380	0.233777	-0.698795	0.127514	-0.034372	0.703025
05102	1.250347	-2.231707	9.731363	-0.000318	0.116459	0.248612	-0.698826	0.127536	-0.034359	0.702991
05103	1.251678	-2.185129	9.685515	0.035137	0.107909	0.194200	-0.698862	0.127528	-0.034381	0.702955
05104	1.254135	-2.091812	9.593886	0.105912	0.090311	0.085384	-0.698893	0.127479	-0.034430	0.702931
05105	1.265499	-2.069215	9.505364	0.108159	0.065040	-0.003551	-0.698925	0.127400	-0.034472	0.702911
05106	1.250179	-2.037274	9.424690	0.120440	0.067323	-0.090590	-0.698940	0.127319	-0.034477	0.702911
05107	1.255807	-2.050333	9.355100	0.091418	0.051706	-0.154127	-0.698958	0.127270	-0.034471	0.702902
05108	1.305747	-2.063175	9.437058	0.096613	0.013212	-0.065369	-0.698943	0.127224	-0.034429	0.702928
05109	1.340320	-2.091504	9.483840	0.078642	-0.014676	-0.009236	-0.698917	0.127160	-0.034432	0.702965
05110	1.374548	-2.120219	9.530597	0.060682	-0.042458	0.046902	-0.698858	0.127117	-0.034452	0.703031
05111	1.380833	-2.237518	9.579789	-0.043020	-0.040350	0.121198	-0.698794	0.127092	-0.034475	0.703097
05112	1.421574	-2.230289	9.607596	-0.029676	-0.077795	0.151951	-0.698750	0.127042	-0.034505	0.703148
05113	1.345742	-2.166981	9.612233	0.031759	-0.004411	0.132202	-0.698706	0.126974	-0.034525	0.703204
05114	1.216749	-2.136545	9.581140	0.052716	0.117390	0.078066	-0.698661	0.126905	-0.034572	0.703259
05115	1.212400	-2.078962	9.508532	0.092220	0.109391	-0.005358	-0.698607	0.126834	-0.034607	0.703323
05116	1.195621	-2.093807	9.473666	0.069141	0.120762	-0.037999	-0.698556	0.126778	-0.034610	0.703384
05117	1.231916	-2.075408	9.474605	0.086535	0.083755	-0.036258	-0.698501	0.126698	-0.034601	0.703454
05118	1.235069	-2.084336	9.502134	0.082618	0.083967	-0.007253	-0.698451	0.126636	-0.034574	0.703516
05119	1.238063	-2.190267	9.524411	-0.017060	0.086464	0.038033	-0.698398	0.126617	-0.034503	0.703575
05120	1.285972	-2.242516	9.528252	-0.068148	0.041807	0.059688	-0.698338	0.126610	-0.034414	0.703640
05121	1.338121	-2.305294	9.559141	-0.123258	-0.003473	0.110363	-0.698283	0.126597	-0.034372	0.703699
05122	1.342623	-2.314553	9.586448	-0.127153	-0.003284	0.139377	-0.698236	0.126591	-0.034312	0.703750
05123	1.399449	-2.291064	9.649518	-0.090510	-0.051398	0.202790	-0.698191	0.126571	-0.034317	0.703798
05124	1.422778	-2.242436	9.569091	-0.060908	-0.086793	0.117523	-0.698154	0.126531	-0.034352	0.703840
05125	1.345179	-2.173575	9.449294	-0.020677	-0.028702	-0.023824	-0.698113	0.126486	-0.034438	0.703885
05126	1.396640	-2.191414	9.434244	-0.040384	-0.083004	-0.027528	-0.698083	0.126447	-0.034540	0.703916
05127	1.333863	-2.210973	9.468634	-0.051682	-0.017814	0.001570	-0.698063	0.126389	-0.034639	0.703942
05128	1.287519	-2.168027	9.492429	-0.004429	0.027814	0.008894	-0.698049	0.126296	-0.034766	0.703966
05129	1.249570	-2.145652	9.570396	0.034734	0.072374	0.074237	-0.698033	0.126214	-0.034876	0.703991
05130	1.237302	-2.178412	9.686615	0.028624	0.098632	0.192129	-0.698002	0.126166	-0.034935	0.704028
05131	1.241159	-2.238864	9.662872	-0.035699	0.091867	0.183030	-0.697962	0.126120	-0.034960	0.704074
05132	1.300079	-2.219389	9.629091	-0.024053	0.027987	0.153953	-0.697913	0.126094	-0.034978	0.704127
05133	1.373613	-2.184204	9.630671	0.010863	-0.046533	0.157523	-0.697871	0.126027	-0.035031	0.704177
05134	1.393850	-2.182276	9.596412	0.005164	-0.072844	0.126676	-0.697821	0.125956	-0.035115	0.704236
05135	1.320262	-2.123743	9.503587	0.041227	-0.015243	0.014296	-0.697768	0.125897	-0.035181	0.704295
05136	1.276417	-2.130704	9.476144	0.027998	0.023510	-0.016510	-0.697727	0.125851	-0.035223	0.704342
05137	1.215955	-2.102920	9.464525	0.051915	0.079655	-0.041863	-0.697676	0.125763	-0.035297	0.704405
05138	1.271473	-2.129935	9.476981	0.028275	0.024835	-0.016514	-0.697626	0.125667	-0.035368	0.704467
05139	1.148006	-2.167974	9.545275	0.005212	0.154626	0.041569	-0.697587	0.125565	-0.035459	0.704520
05140	1.147635	-2.224399	9.618737	-0.034065	0.163907	0.124973	-0.697531	0.125480	-0.035496	0.704589
05141	1.097856	-2.169966	9.615386	0.017078	0.210049	0.103223	-0.697500	0.125392	-0.035513	0.704635
05142	1.171086	-2.133685	9.617365	0.052083	0.135697	0.106820	-0.697473	0.125305	-0.035509	0.704677
05143	1.191978	-2.130592	9.583295	0.046392	0.109262	0.075977	-0.697448	0.125213	-0.035518	0.704717
05144	1.244075	-2.146376	9.568842	0.026842	0.054908	0.072334	-0.697422	0.125124	-0.035524	0.704759
05145	1.266500	-2.193494	9.483796	-0.039232	0.021368	0.003413	-0.697406	0.125005	-0.035528	0.704795
05146	1.301599	-2.174274	9.485280	-0.021617	-0.015454	0.005227	-0.697393	0.124875	-0.035548	0.704830
05147	1.327830	-2.141214	9.556761	0.025084	-0.035743	0.070516	-0.697423	0.124714	-0.035619	0.704825
05148	1.313346	-2.166081	9.549339	-0.002077	-0.025057	0.066889	-0.697424	0.124551	-0.035707	0.704848
05149	1.255124	-2.148033	9.565008	0.017687	0.030649	0.070506	-0.697448	0.124391	-0.035804	0.704848
05150	1.205422	-2.144294	9.510617	0.008366	0.069808	0.010649	-0.697478	0.124277	-0.035875	0.704836
05151	1.122979	-2.168564	9.482359	-0.022512	0.145895	-0.022024	-0.697511	0.124166	-0.035944	0.704819
05152	1.151163	-2.186605	9.502603	-0.036223	0.118578	0.005180	-0.697539	0.124055	-0.035995	0.704807
05153	1.134019	-2.207937	9.591894	-0.038395	0.145340	0.094018	-0.697566	0.123958	-0.036019	0.704797
05154	1.207267	-2.171403	9.594158	-0.003213	0.071062	0.097675	-0.697598	0.123886	-0.035975	0.704780
05155	1.243565	-2.151918	9.595611	0.014457	0.034183	0.099506	-0.697617	0.123790	-0.035923	0.704781
05156	1.225493	-2.115486	9.611838	0.051685	0.052535	0.104929	-0.697643	0.123703	-0.035903	0.704772
05157	1.205320	-2.119651	9.549826	0.032535	0.064001	0.043262	-0.697658	0.123641	-0.035873	0.704768
05158	1.137719	-2.070681	9.483564	0.064254	0.121225	-0.040211	-0.697671	0.123595	-0.035839	0.704766
05159	1.122542	-2.085267	9.448535	0.041059	0.132215	-0.072868	-0.697681	0.123561	-0.035777	0.704765
05160	1.126665	-2.094228	9.475954	0.037147	0.132471	-0.043862	-0.697668	0.123552	-0.035709	0.704783
05161	1.191534	-2.084103	9.469661	0.045094	0.068043	-0.043805	-0.697654	0.123567	-0.035647	0.704798
05162	1.319269	-2.111253	9.502895	0.025539	-0.052332	0.010728	-0.697632	0.123581	-0.035544	0.704822
05163	1.350794	-2.128885	9.522872	0.011927	-0.079744	0.037967	-0.697604	0.123566	-0.035520	0.704853
05164	1.287329	-2.187987	9.478642	-0.056186	-0.021353	-0.000168	-0.697587	0.123519	-0.035547	0.704877
05165	1.110233	-2.203442	9.436697	-0.081395	0.147673	-0.060221	-0.697570	0.123441	-0.035635	0.704903
05166	1.070093	-2.221096	9.436104	-0.098909	0.185815	-0.062092	-0.697562	0.123370	-0.035706	0.704920
05167	1.067393	-2.123792	9.441392	-0.003039	0.184835	-0.078443	-0.697589	0.123283	-0.035763	0.704905
05168	1.116721	-1.999070	9.607144	0.154780	0.152167	0.061190	-0.697637	0.123220	-0.035802	0.704868
05169	1.102375	-1.974800	9.650042	0.187925	0.170097	0.095598	-0.697671	0.123220	-0.035842	0.704832
05170	1.126959	-2.030208	9.688726	0.142943	0.152223	0.148216	-0.697684	0.123279	-0.035810	0.704809
05171	1.173086	-2.124095	9.614781	0.035921	0.100082	0.102988	-0.697683	0.123316	-0.035820	0.704804
05172	1.210769	-2.203659	9.610726	-0.042069	0.064861	0.121202	-0.697640	0.123355	-0.035787	0.704842
05173	1.240418	-2.165033	9.557437	-0.016243	0.028927	0.065041	-0.697598	0.123368	-0.035725	0.704884
05174	1.334519	-2.116738	9.497873	0.017593	-0.071926	0.009005	-0.697570	0.123379	-0.035670	0.704912
05175	1.342263	-2.033373	9.433127	0.084505	-0.089641	-0.070769	-0.697571	0.123357	-0.035695	0.704914
05176	1.323761	-1.998849	9.448930	0.121688	-0.071138	-0.065372	-0.697576	0.123310	-0.035758	0.704913
05177	1.196553	-2.028049	9.488974	0.101753	0.059087	-0.036620	-0.697590	0.123269	-0.035840	0.704903
05178	1.169833	-2.070440	9.445468	0.051158	0.079864	-0.072918	-0.697600	0.123248	-0.035878	0.704895
05179	1.137296	-2.058102	9.549882	0.085912	0.124587	0.021262	-0.697617	0.123245	-0.035865	0.704879
05180	1.045477	-2.058990	9.563500	0.087602	0.217933	0.022851	-0.697602	0.123284	-0.035841	0.704889
05181	1.029511	-2.121697	9.574001	0.028937	0.237715	0.044576	-0.697586	0.123351	-0.035803	0.704895
05182	1.118883	-2.207756	9.528089	-0.064275	0.147562	0.030314	-0.697565	0.123467	-0.035713	0.704899
05183	1.125394	-2.217883	9.554975	-0.068182	0.147728	0.059323	-0.697553	0.123570	-0.035590	0.704900
05184	1.208868	-2.145530	9.537839	-0.001188	0.064303	0.037739	-0.697530	0.123676	-0.035467	0.704910
05185	1.242328	-2.163787	9.557471	-0.014701	0.036866	0.065017	-0.697521	0.123762	-0.035374	0.704909
05186	1.264328	-2.111427	9.573827	0.040192	0.018051	0.072294	-0.697494	0.123833	-0.035326	0.704925
05187	1.225371	-2.073187	9.499461	0.061963	0.047563	-0.013030	-0.697472	0.123922	-0.035348	0.704931
05188	1.310121	-2.012812	9.509397	0.125030	-0.036221	-0.005572	-0.697456	0.123973	-0.035417	0.704934
05189	1.288487	-2.066686	9.492659	0.070397	-0.016092	-0.012853	-0.697447	0.124012	-0.035504	0.704931
05190	1.332759	-2.070971	9.547751	0.080313	-0.053581	0.047099	-0.697425	0.124046	-0.035607	0.704942
05191	1.314834	-2.135153	9.558163	0.021669	-0.033899	0.068837	-0.697390	0.124072	-0.035705	0.704967
05192	1.224711	-2.188236	9.520520	-0.037183	0.051692	0.032339	-0.697335	0.124134	-0.035758	0.705008
05193	1.164705	-2.209291	9.553602	-0.049294	0.116866	0.061153	-0.697282	0.124238	-0.035749	0.705042
05194	1.183100	-2.244713	9.537591	-0.086150	0.099656	0.055785	-0.697216	0.124362	-0.035700	0.705088
05195	1.167937	-2.211039	9.552803	-0.049065	0.118172	0.061139	-0.697172	0.124471	-0.035657	0.705115
05196	1.231413	-2.151546	9.597262	0.019681	0.061694	0.099364	-0.697165	0.124562	-0.035594	0.705109
05197	1.242707	-2.125855	9.605329	0.047208	0.052601	0.103003	-0.697160	0.124642	-0.035575	0.705101
05198	1.330676	-2.115225	9.564305	0.050079	-0.038888	0.072493	-0.697161	0.124731	-0.035589	0.705083
05199	1.336996	-2.177118	9.540127	-0.014140	-0.046519	0.063499	-0.697182	0.124765	-0.035654	0.705053
05200	1.321178	-2.194230	9.504606	-0.037395	-0.035713	0.030840	-0.697214	0.124773	-0.035731	0.705016
05201	1.318990	-2.195255	9.504674	-0.037252	-0.035106	0.030842	-0.697234	0.124739	-0.035839	0.704997
05202	1.343480	-2.211160	9.621592	-0.025701	-0.045708	0.150568	-0.697258	0.124733	-0.035930	0.704969
05203	1.355494	-2.196238	9.657157	-0.002143	-0.055172	0.183235	-0.697269	0.124699	-0.036032	0.704959
05204	1.304806	-2.143960	9.653133	0.048474	-0.008409	0.161261	-0.697310	0.124665	-0.036100	0.704922
05205	1.342764	-2.176664	9.603314	0.006158	-0.053022	0.125203	-0.697346	0.124636	-0.036147	0.704889
05206	1.363755	-2.174761	9.569176	0.000793	-0.079561	0.094493	-0.697385	0.124587	-0.036203	0.704856
05207	1.354889	-2.211140	9.588360	-0.030475	-0.069696	0.119872	-0.697434	0.124485	-0.036293	0.704820
05208	1.332473	-2.222817	9.650500	-0.028817	-0.042124	0.179607	-0.697483	0.124347	-0.036355	0.704793
05209	1.241491	-2.233531	9.691690	-0.031601	0.050724	0.210049	-0.697542	0.124224	-0.036409	0.704754
05210	1.217021	-2.187841	9.680811	0.009446	0.069867	0.186358	-0.697594	0.124092	-0.036464	0.704723
05211	1.154155	-2.200110	9.590530	-0.023808	0.118599	0.093684	-0.697660	0.123985	-0.036494	0.704675
05212	1.160382	-2.212898	9.521255	-0.052614	0.102052	0.030306	-0.697725	0.123882	-0.036511	0.704627
05213	1.209545	-2.177728	9.558510	-0.011114	0.055354	0.064935	-0.697806	0.123775	-0.036511	0.704566
05214	1.306758	-2.091643	9.481252	0.054880	-0.054614	-0.016222	-0.697891	0.123648	-0.036518	0.704504
05215	1.313956	-2.063931	9.490355	0.082456	-0.063595	-0.012571	-0.697964	0.123507	-0.036549	0.704454
05216	1.310533	-2.062655	9.491106	0.082600	-0.062872	-0.012568	-0.698018	0.123363	-0.036614	0.704423
05217	1.323951	-2.096068	9.476304	0.045842	-0.080318	-0.017886	-0.698070	0.123226	-0.036682	0.704392
05218	1.343034	-2.196853	9.561766	-0.034323	-0.089649	0.089234	-0.698106	0.123073	-0.036794	0.704377
05219	1.340049	-2.253230	9.635672	-0.073601	-0.080604	0.172654	-0.698157	0.122889	-0.036947	0.704351
05220	1.197077	-2.257769	9.718105	-0.061676	0.067331	0.235384	-0.698193	0.122714	-0.037027	0.704341
05221	1.039252	-2.220856	9.691742	-0.033839	0.216723	0.182011	-0.698222	0.122576	-0.037059	0.704335
05222	0.989536	-2.159858	9.563672	-0.004355	0.247037	0.038553	-0.698243	0.122466	-0.037043	0.704335
05223	1.040317	-2.117533	9.476980	0.016298	0.183858	-0.048196	-0.698273	0.122358	-0.036997	0.704325
05224	1.167662	-2.095956	9.466030	0.033611	0.054686	-0.047542	-0.698286	0.122239	-0.036965	0.704335
05225	1.435693	-2.085557	9.525086	0.056239	-0.205584	0.040870	-0.698291	0.122114	-0.036950	0.704353
05226	1.474401	-2.075906	9.554352	0.070460	-0.242480	0.071903	-0.698269	0.121971	-0.036983	0.704397
05227	1.442036	-2.113204	9.608098	0.044599	-0.205358	0.127961	-0.698265	0.121875	-0.037057	0.704414
05228	1.360458	-2.138536	9.578836	0.012637	-0.129784	0.094951	-0.698267	0.121776	-0.037131	0.704426
05229	1.224024	-2.147453	9.563650	-0.000568	0.001090	0.065227	-0.698254	0.121647	-0.037236	0.704455
05230	1.074737	-2.229089	9.586085	-0.076723	0.150346	0.086224	-0.698233	0.121490	-0.037349	0.704497
05231	1.076703	-2.191632	9.567982	-0.045176	0.141813	0.060846	-0.698217	0.121316	-0.037426	0.704539
05232	1.139560	-2.133972	9.517085	-0.000926	0.068818	0.006814	-0.698214	0.121167	-0.037502	0.704563
05233	1.210258	-2.137001	9.442406	-0.020966	-0.012947	-0.056155	-0.698226	0.121045	-0.037532	0.704571
05234	1.231551	-2.093395	9.486993	0.030114	-0.031619	-0.019825	-0.698209	0.120925	-0.037561	0.704607
05235	1.256349	-2.100454	9.480596	0.020876	-0.058706	-0.021460	-0.698205	0.120836	-0.037594	0.704625
05236	1.310920	-2.132347	9.618493	0.019194	-0.097025	0.125675	-0.698175	0.120755	-0.037617	0.704667
05237	1.314710	-2.095238	9.600146	0.050795	-0.105509	0.100313	-0.698131	0.120669	-0.037684	0.704722
05238	1.220535	-2.096559	9.612999	0.051506	-0.012145	0.101556	-0.698068	0.120604	-0.037738	0.704792
05239	1.087412	-2.099761	9.472929	0.017145	0.101893	-0.049636	-0.698002	0.120558	-0.037793	0.704862
05240	0.976582	-2.107354	9.422704	-0.001733	0.205433	-0.110120	-0.697930	0.120543	-0.037805	0.704935
05241	0.981585	-2.070623	9.404076	0.029812	0.196946	-0.135500	-0.697859	0.120496	-0.037827	0.705012
05242	1.013882	-2.001364	9.456750	0.108367	0.168914	-0.095524	-0.697802	0.120434	-0.037834	0.705079
05243	1.000825	-2.073390	9.494645	0.045512	0.187747	-0.044803	-0.697699	0.120414	-0.037816	0.705185
05244	1.022216	-2.117504	9.506623	0.004810	0.169831	-0.021070	-0.697584	0.120454	-0.037783	0.705294
05245	0.977671	-2.258793	9.491778	-0.136542	0.217324	-0.010343	-0.697445	0.120518	-0.037718	0.705424
05246	0.922818	-2.329269	9.473346	-0.209630	0.274060	-0.019715	-0.697305	0.120618	-0.037613	0.705551
05247	0.926079	-2.145060	9.510161	-0.022009	0.273852	-0.023582	-0.697187	0.120705	-0.037515	0.705658
05248	0.931119	-2.017691	9.620165	0.126175	0.282190	0.055954	-0.697066	0.120824	-0.037405	0.705763
05249	0.990874	-1.946966	9.638121	0.199448	0.226833	0.065301	-0.696933	0.120961	-0.037301	0.705876
05250	1.015681	-1.991477	9.649636	0.158767	0.208917	0.089040	-0.696796	0.121119	-0.037153	0.705992
05251	1.128071	-2.023589	9.621535	0.121729	0.098602	0.082607	-0.696627	0.121237	-0.037083	0.706143
05252	1.159107	-2.025408	9.490206	0.091705	0.054645	-0.040358	-0.696451	0.121316	-0.037032	0.706305
05253	1.189697	-2.130582	9.478126	-0.013218	0.027642	-0.025518	-0.696261	0.121391	-0.037014	0.706481
05254	1.206496	-2.211534	9.508620	-0.085329	0.018707	0.023610	-0.696086	0.121440	-0.036981	0.706647
05255	1.228981	-2.255514	9.520451	-0.125954	0.000608	0.047377	-0.695925	0.121465	-0.036938	0.706803
05256	1.165573	-2.225447	9.604012	-0.078503	0.074486	0.113868	-0.695791	0.121521	-0.036903	0.706927
05257	1.193579	-2.233515	9.596954	-0.087639	0.047342	0.112272	-0.695701	0.121566	-0.036902	0.707008
05258	1.150652	-2.144925	9.573187	-0.006043	0.085484	0.064725	-0.695644	0.121597	-0.036877	0.707060
05259	1.091907	-2.118901	9.559898	0.016525	0.141955	0.038872	-0.695611	0.121602	-0.036870	0.707092
05260	1.202342	-2.063278	9.564468	0.071484	0.031308	0.045087	-0.695597	0.121580	-0.036881	0.707108
05261	1.307892	-1.997330	9.542021	0.130455	-0.079079	0.022291	-0.695578	0.121510	-0.036926	0.707137
05262	1.282580	-2.039394	9.498365	0.079536	-0.059303	-0.014053	-0.695566	0.121458	-0.036955	0.707157
05263	1.275671	-2.075703	9.517346	0.048174	-0.049656	0.011312	-0.695555	0.121466	-0.036964	0.707166
05264	1.232434	-2.170839	9.456578	-0.057810	-0.011238	-0.032358	-0.695552	0.121465	-0.036953	0.707169
05265	1.189108	-2.185381	9.552097	-0.051187	0.043915	0.057869	-0.695556	0.121472	-0.036942	0.707164
05266	1.123824	-2.155824	9.635720	-0.003871	0.117941	0.124300	-0.695582	0.121468	-0.036962	0.707139
05267	1.116859	-2.192304	9.654646	-0.035267	0.127567	0.149654	-0.695631	0.121440	-0.036978	0.707094
05268	1.138923	-2.149512	9.698883	0.015936	0.109318	0.185997	-0.695693	0.121425	-0.036971	0.707036
05269	1.133752	-2.139145	9.671877	0.020018	0.110279	0.156965	-0.695781	0.121400	-0.036984	0.706954
05270	1.088783	-2.090441	9.570240	0.045199	0.140078	0.042424	-0.695880	0.121337	-0.037008	0.706865
05271	1.119902	-2.061359	9.544897	0.067633	0.103950	0.015490	-0.695963	0.121289	-0.037025	0.706791
05272	1.095038	-2.103534	9.501117	0.016636	0.123593	-0.020872	-0.696033	0.121255	-0.037032	0.706727
05273	1.145154	-2.108552	9.460359	0.002376	0.068973	-0.053026	-0.696068	0.121260	-0.036981	0.706695
05274	1.175784	-2.085830	9.558973	0.045671	0.050151	0.041374	-0.696134	0.121250	-0.036977	0.706632
05275	1.182794	-2.106325	9.613439	0.037848	0.050146	0.099420	-0.696181	0.121277	-0.036997	0.706580
05276	1.221163	-2.185558	9.610016	-0.039393	0.013533	0.118002	-0.696240	0.121292	-0.037042	0.706517
05277	1.313000	-2.137199	9.551849	-0.003673	-0.087128	0.062626	-0.696314	0.121291	-0.037141	0.706439
05278	1.271116	-2.060035	9.555283	0.073823	-0.049046	0.044039	-0.696411	0.121270	-0.037250	0.706341
05279	1.168442	-2.043849	9.513117	0.081743	0.044856	-0.013031	-0.696498	0.121226	-0.037384	0.706255
05280	1.083146	-2.061501	9.455711	0.052949	0.120304	-0.075327	-0.696573	0.121152	-0.037502	0.706188
05281	1.070328	-2.088217	9.447538	0.025490	0.130177	-0.079002	-0.696630	0.121082	-0.037580	0.706140
05282	1.065996	-2.134829	9.493778	-0.009897	0.139512	-0.024628	-0.696664	0.121030	-0.037621	0.706113
05283	1.089402	-2.148930	9.611297	0.001894	0.129653	0.095133	-0.696714	0.121001	-0.037637	0.706068
05284	1.117825	-2.213582	9.677745	-0.046568	0.110882	0.176995	-0.696735	0.121022	-0.037636	0.706044
05285	1.209198	-2.211001	9.665745	-0.046213	0.018867	0.176048	-0.696770	0.121046	-0.037637	0.706005
05286	1.238101	-2.172530	9.612946	-0.019691	-0.016836	0.120129	-0.696816	0.121079	-0.037634	0.705954
05287	1.303552	-2.115641	9.561846	0.025307	-0.089651	0.066351	-0.696855	0.121074	-0.037676	0.705915
05288	1.312798	-2.043200	9.524558	0.088515	-0.106749	0.015643	-0.696889	0.121011	-0.037787	0.705885
05289	1.214053	-2.036542	9.509558	0.092296	-0.013171	-0.012461	-0.696913	0.120956	-0.037895	0.705866
05290	1.162629	-2.025206	9.426476	0.085819	0.025468	-0.101683	-0.696917	0.120904	-0.037996	0.705865
05291	1.126795	-2.054363	9.452209	0.063468	0.062810	-0.074805	-0.696922	0.120851	-0.038080	0.705865
05292	1.132160	-2.075096	9.506812	0.055657	0.062933	-0.016758	-0.696899	0.120819	-0.038154	0.705889
05293	1.145927	-2.156492	9.537602	-0.016379	0.053519	0.032429	-0.696883	0.120793	-0.038237	0.705905
05294	1.146309	-2.213992	9.610763	-0.055727	0.062523	0.115834	-0.696869	0.120811	-0.038272	0.705913
05295	1.121848	-2.216898	9.644713	-0.050529	0.090672	0.146374	-0.696881	0.120824	-0.038296	0.705898
05296	1.141929	-2.117553	9.615913	0.040249	0.064465	0.099328	-0.696917	0.120795	-0.038300	0.705867
05297	1.132829	-2.097159	9.561681	0.048274	0.065680	0.041270	-0.696926	0.120771	-0.038349	0.705860
05298	1.178134	-2.092608	9.493948	0.038235	0.011326	-0.019809	-0.696930	0.120725	-0.038410	0.705860
05299	1.212781	-2.073909	9.496039	0.056904	-0.025030	-0.017646	-0.696931	0.120643	-0.038469	0.705870
05300	1.315018	-2.054565	9.520500	0.081176	-0.126382	0.014207	-0.696910	0.120550	-0.038578	0.705901
05301	1.324669	-2.038643	9.556684	0.104951	-0.135167	0.046914	-0.696881	0.120447	-0.038723	0.705939
05302	1.305594	-2.102002	9.567267	0.045957	-0.116449	0.068604	-0.696824	0.120364	-0.038859	0.706002
05303	1.245303	-2.133658	9.626918	0.028600	-0.051582	0.125992	-0.696760	0.120285	-0.038984	0.706072
05304	1.159138	-2.197669	9.614935	-0.036047	0.032191	0.117971	-0.696680	0.120247	-0.039068	0.706152
05305	1.080883	-2.282156	9.657256	-0.108649	0.115289	0.167996	-0.696625	0.120200	-0.039171	0.706209
05306	1.056551	-2.238344	9.645443	-0.067997	0.134999	0.144130	-0.696565	0.120134	-0.039266	0.706274
05307	1.051781	-2.181945	9.572563	-0.028439	0.127346	0.060714	-0.696514	0.120060	-0.039400	0.706329
05308	1.090787	-2.127722	9.556001	0.021839	0.082282	0.037537	-0.696492	0.119984	-0.039571	0.706355
05309	1.116161	-2.090054	9.503667	0.048473	0.046516	-0.018337	-0.696464	0.119908	-0.039762	0.706384
05310	1.111957	-2.091466	9.503849	0.048584	0.047233	-0.018341	-0.696432	0.119830	-0.039946	0.706419
05311	1.050529	-2.106984	9.411867	0.014301	0.094708	-0.111293	-0.696413	0.119745	-0.040091	0.706444
05312	1.067988	-2.111783	9.502321	0.030150	0.085513	-0.020542	-0.696373	0.119697	-0.040181	0.706487
05313	1.162405	-2.176100	9.591611	-0.012442	0.001489	0.091122	-0.696332	0.119626	-0.040301	0.706532
05314	1.245605	-2.122961	9.631828	0.048662	-0.080990	0.128222	-0.696290	0.119508	-0.040454	0.706585
05315	1.247176	-2.086996	9.613625	0.080357	-0.089145	0.102875	-0.696241	0.119418	-0.040618	0.706638
05316	1.213199	-2.110071	9.515071	0.037115	-0.069495	0.008444	-0.696204	0.119318	-0.040796	0.706681
05317	1.150069	-2.085446	9.501313	0.059061	-0.012876	-0.017636	-0.696179	0.119206	-0.040974	0.706715
05318	1.084496	-2.107543	9.533363	0.045469	0.052351	0.010656	-0.696143	0.119076	-0.041170	0.706761
05319	1.034738	-2.210285	9.596044	-0.040231	0.107191	0.088171	-0.696109	0.118935	-0.041349	0.706808
05320	0.999111	-2.209551	9.727044	-0.010472	0.153544	0.210887	-0.696088	0.118814	-0.041454	0.706842
05321	0.989768	-2.245981	9.746021	-0.041973	0.162947	0.236227	-0.696091	0.118716	-0.041552	0.706851
05322	1.010764	-2.243438	9.712602	-0.046847	0.136053	0.205725	-0.696096	0.118657	-0.041622	0.706851
05323	1.080144	-2.148829	9.644278	0.030165	0.054649	0.126748	-0.696140	0.118552	-0.041707	0.706820
05324	1.065697	-2.118070	9.563039	0.042117	0.056145	0.039659	-0.696166	0.118432	-0.041826	0.706808
05325	1.038219	-2.103456	9.445924	0.030371	0.066809	-0.080138	-0.696179	0.118306	-0.041928	0.706810
05326	1.031012	-2.092901	9.419170	0.034418	0.067771	-0.109172	-0.696196	0.118189	-0.042020	0.706808
05327	1.042253	-2.116530	9.377250	0.001934	0.049766	-0.143338	-0.696218	0.118091	-0.042121	0.706796
05328	1.031081	-2.113075	9.474456	0.026707	0.068593	-0.051125	-0.696248	0.117980	-0.042223	0.706780
05329	0.986301	-2.138755	9.596603	0.028750	0.123972	0.067882	-0.696298	0.117880	-0.042344	0.706740
05330	1.033743	-2.161203	9.708106	0.031822	0.086821	0.186222	-0.696322	0.117818	-0.042447	0.706720
05331	0.997474	-2.190345	9.733319	0.009179	0.124070	0.213008	-0.696370	0.117738	-0.042507	0.706682
05332	1.040102	-2.231908	9.712205	-0.036095	0.077988	0.206433	-0.696419	0.117644	-0.042615	0.706643
05333	1.117897	-2.197759	9.620466	-0.023081	-0.013281	0.118702	-0.696487	0.117532	-0.042716	0.706589
05334	1.233340	-2.114814	9.636757	0.061083	-0.132086	0.129117	-0.696535	0.117371	-0.042856	0.706560
05335	1.259864	-2.028540	9.539650	0.123446	-0.176277	0.018937	-0.696559	0.117147	-0.043057	0.706561
05336	1.206329	-2.016448	9.456414	0.116604	-0.137971	-0.070387	-0.696562	0.116936	-0.043252	0.706581
05337	1.089393	-2.015786	9.376836	0.099744	-0.035030	-0.160535	-0.696551	0.116795	-0.043407	0.706605
05338	0.935893	-2.051153	9.445765	0.080784	0.122575	-0.102689	-0.696532	0.116708	-0.043507	0.706632
05339	0.896998	-2.127238	9.516588	0.022524	0.168259	-0.021550	-0.696509	0.116641	-0.043609	0.706660
05340	0.879208	-2.190484	9.526578	-0.036667	0.186585	0.000098	-0.696482	0.116574	-0.043685	0.706693
05341	0.861883	-2.166688	9.569052	-0.004083	0.205948	0.034226	-0.696449	0.116513	-0.043740	0.706732
05342	0.887561	-2.174110	9.563001	-0.012825	0.178751	0.032788	-0.696433	0.116470	-0.043776	0.706752
05343	0.904185	-2.208209	9.548144	-0.049233	0.160374	0.027671	-0.696432	0.116443	-0.043837	0.706755
05344	0.882992	-2.204417	9.457716	-0.065000	0.170680	-0.063114	-0.696445	0.116415	-0.043896	0.706742
05345	0.926913	-2.159338	9.469125	-0.018396	0.125575	-0.057170	-0.696460	0.116357	-0.043954	0.706733
05346	0.908949	-2.078628	9.438526	0.053688	0.136860	-0.106450	-0.696480	0.116326	-0.043996	0.706717
05347	0.997213	-2.122092	9.474389	0.019533	0.053279	-0.052639	-0.696470	0.116346	-0.044036	0.706720
05348	1.119586	-2.107069	9.590999	0.060556	-0.057329	0.070304	-0.696447	0.116328	-0.044120	0.706741
05349	1.117348	-2.108200	9.591011	0.060657	-0.056691	0.070307	-0.696406	0.116317	-0.044246	0.706775
05350	1.094380	-2.209591	9.619076	-0.030141	-0.029802	0.117307	-0.696352	0.116346	-0.044374	0.706815
05351	1.092553	-2.211681	9.618804	-0.030049	-0.029181	0.117309	-0.696305	0.116384	-0.044501	0.706848
05352	1.041999	-2.219519	9.685375	-0.020316	0.026928	0.178177	-0.696261	0.116426	-0.044659	0.706874
05353	1.066569	-2.259133	9.573330	-0.081269	-0.009913	0.080906	-0.696229	0.116437	-0.044823	0.706894
05354	0.993417	-2.252009	9.522180	-0.083487	0.055930	0.021957	-0.696187	0.116461	-0.044919	0.706925
05355	0.952016	-2.175387	9.524707	-0.006629	0.094919	0.003097	-0.696168	0.116513	-0.044966	0.706932
05356	0.985126	-2.147541	9.499826	0.016346	0.059070	-0.023645	-0.696171	0.116588	-0.044997	0.706915
05357	0.954632	-2.188157	9.551445	-0.010412	0.096021	0.032115	-0.696172	0.116625	-0.045036	0.706905
05358	0.948207	-2.225678	9.569728	-0.041958	0.105338	0.057448	-0.696175	0.116657	-0.045062	0.706896
05359	0.966937	-2.230462	9.660217	-0.026009	0.096480	0.148223	-0.696174	0.116686	-0.045048	0.706892
05360	1.052628	-2.263437	9.668908	-0.055996	0.013163	0.173085	-0.696181	0.116694	-0.045085	0.706882
05361	1.121572	-2.215816	9.646996	-0.013989	-0.059507	0.148666	-0.696185	0.116692	-0.045131	0.706875
05362	1.055813	-2.227925	9.650515	-0.024173	0.005894	0.147745	-0.696208	0.116694	-0.045178	0.706850
05363	0.985656	-2.172780	9.553871	0.009053	0.063246	0.034386	-0.696211	0.116687	-0.045255	0.706843
05364	0.888638	-2.167507	9.536225	0.011447	0.156792	0.005797	-0.696236	0.116693	-0.045315	0.706813
05365	0.860015	-2.247532	9.509621	-0.071598	0.183783	-0.005291	-0.696244	0.116696	-0.045365	0.706802
05366	0.859666	-2.305104	9.582510	-0.111044	0.192637	0.078096	-0.696265	0.116686	-0.045379	0.706782
05367	0.944698	-2.337354	9.591499	-0.140943	0.109186	0.102994	-0.696300	0.116637	-0.045381	0.706755
05368	0.955092	-2.233709	9.660645	-0.025302	0.102520	0.148164	-0.696361	0.116578	-0.045369	0.706705
05369	0.949814	-2.222615	9.633790	-0.021294	0.103344	0.119127	-0.696440	0.116494	-0.045399	0.706639
05370	0.940715	-2.201352	9.579721	-0.013346	0.104455	0.061058	-0.696511	0.116402	-0.045431	0.706583
05371	1.045882	-2.190285	9.634051	0.008320	0.003283	0.122406	-0.696565	0.116297	-0.045442	0.706546
05372	1.135238	-2.184938	9.625146	0.010189	-0.088630	0.122009	-0.696618	0.116175	-0.045478	0.706511
05373	1.123106	-2.210272	9.616902	-0.017418	-0.079255	0.118319	-0.696637	0.116051	-0.045532	0.706509
05374	1.047188	-2.247445	9.611854	-0.055466	-0.005140	0.113654	-0.696645	0.115990	-0.045552	0.706511
05375	0.993836	-2.271485	9.546054	-0.094316	0.041301	0.049558	-0.696649	0.115958	-0.045504	0.706515
05376	0.910506	-2.247800	9.564674	-0.068347	0.125886	0.053624	-0.696670	0.115917	-0.045424	0.706506
05377	0.876457	-2.275458	9.589595	-0.091317	0.162997	0.080305	-0.696699	0.115853	-0.045381	0.706491
05378	0.884418	-2.247459	9.598908	-0.063527	0.154970	0.083991	-0.696731	0.115781	-0.045335	0.706474
05379	0.910954	-2.252974	9.593388	-0.072075	0.127616	0.082632	-0.696768	0.115686	-0.045273	0.706457
05380	0.955478	-2.205379	9.605611	-0.025154	0.082924	0.088670	-0.696832	0.115597	-0.045209	0.706412
05381	0.938195	-2.122496	9.575409	0.046840	0.094492	0.039344	-0.696898	0.115505	-0.045138	0.706367
05382	0.921726	-2.126449	9.512597	0.027048	0.104282	-0.022424	-0.696954	0.115432	-0.045069	0.706328
05383	0.874934	-2.112965	9.428473	0.019765	0.142134	-0.111882	-0.696976	0.115392	-0.044972	0.706319
05384	0.933886	-2.136240	9.444005	-0.001267	0.086694	-0.085541	-0.696988	0.115383	-0.044868	0.706316
05385	0.974901	-2.182940	9.547355	-0.025492	0.058591	0.029242	-0.696980	0.115365	-0.044793	0.706331
05386	1.040606	-2.226781	9.617377	-0.054343	0.002784	0.113661	-0.696970	0.115368	-0.044675	0.706348
05387	1.117824	-2.197446	9.650431	-0.019842	-0.070080	0.147424	-0.697008	0.115363	-0.044603	0.706316
05388	1.163312	-2.151251	9.662171	0.027186	-0.114680	0.153497	-0.697052	0.115365	-0.044584	0.706273
05389	1.162111	-2.151010	9.662369	0.027303	-0.114043	0.153504	-0.697109	0.115320	-0.044613	0.706222
05390	1.104648	-2.165580	9.569293	-0.007730	-0.067490	0.060343	-0.697153	0.115242	-0.044646	0.706190
05391	0.954167	-2.097374	9.518017	0.046894	0.073615	-0.020117	-0.697184	0.115156	-0.044673	0.706172
05392	0.853925	-2.080247	9.473117	0.052710	0.167301	-0.077915	-0.697194	0.115091	-0.044643	0.706174
05393	0.837895	-2.085150	9.410064	0.032872	0.176916	-0.139692	-0.697205	0.115073	-0.044582	0.706170
05394	0.908997	-2.092525	9.461657	0.035765	0.112653	-0.080579	-0.697186	0.115071	-0.044486	0.706195
05395	0.935343	-2.145563	9.501556	-0.008298	0.093566	-0.027543	-0.697175	0.115125	-0.044375	0.706204
05396	0.993265	-2.216571	9.562559	-0.064796	0.046383	0.053211	-0.697168	0.115204	-0.044267	0.706204
05397	1.099616	-2.252528	9.662362	-0.078209	-0.046294	0.169097	-0.697170	0.115255	-0.044216	0.706198
05398	1.086634	-2.182107	9.658671	-0.010152	-0.034636	0.148788	-0.697177	0.115268	-0.044222	0.706188
05399	1.018235	-2.183891	9.634678	-0.016874	0.030775	0.118675	-0.697197	0.115266	-0.044239	0.706168
05400	0.930569	-2.094710	9.552440	0.052178	0.107569	0.010173	-0.697223	0.115285	-0.044210	0.706141
05401	0.957272	-2.044687	9.473471	0.083292	0.072092	-0.074534	-0.697233	0.115273	-0.044177	0.706135
05402	0.944631	-2.060177	9.437612	0.059534	0.081562	-0.107277	-0.697226	0.115242	-0.044139	0.706149
05403	0.978079	-2.086920	9.486454	0.043276	0.053862	-0.050520	-0.697230	0.115206	-0.044121	0.706153
05404	1.008765	-2.103466	9.507971	0.030959	0.026403	-0.022793	-0.697214	0.115207	-0.044048	0.706173
05405	1.028893	-2.193264	9.566409	-0.044738	0.015684	0.055594	-0.697203	0.115227	-0.043975	0.706185
05406	1.002232	-2.185190	9.572476	-0.036175	0.044406	0.056889	-0.697201	0.115282	-0.043877	0.706184
05407	0.973287	-2.224267	9.624246	-0.063248	0.081297	0.112540	-0.697215	0.115341	-0.043816	0.706164
05408	1.010842	-2.205044	9.626938	-0.043849	0.045429	0.114949	-0.697239	0.115403	-0.043758	0.706134
05409	1.061136	-2.256326	9.633356	-0.092368	-0.001593	0.137692	-0.697286	0.115438	-0.043727	0.706084
05410	1.053427	-2.148835	9.611265	0.007353	0.001806	0.092037	-0.697315	0.115420	-0.043686	0.706060
05411	1.049205	-2.137824	9.584273	0.011370	0.002584	0.063004	-0.697333	0.115360	-0.043686	0.706053
05412	1.115251	-2.165107	9.503273	-0.033782	-0.071945	-0.002624	-0.697367	0.115284	-0.043703	0.706030
05413	1.164372	-2.081777	9.496806	0.045156	-0.124782	-0.021810	-0.697385	0.115195	-0.043709	0.706027
05414	1.081567	-1.982231	9.574845	0.158412	-0.037659	0.023479	-0.697405	0.115143	-0.043709	0.706016
05415	0.989273	-2.043214	9.657348	0.116445	0.063681	0.106997	-0.697402	0.115138	-0.043699	0.706020
05416	0.999686	-2.160218	9.706985	0.012994	0.061486	0.181687	-0.697390	0.115153	-0.043682	0.706030
05417	0.943911	-2.175552	9.613553	-0.022331	0.107604	0.088440	-0.697377	0.115143	-0.043705	0.706043
05418	0.940931	-2.252138	9.554018	-0.110110	0.105924	0.046997	-0.697376	0.115129	-0.043703	0.706047
05419	0.859285	-2.183109	9.526305	-0.049208	0.182437	-0.003553	-0.697396	0.115105	-0.043687	0.706032
05420	0.907760	-2.176663	9.459984	-0.058098	0.127340	-0.064169	-0.697407	0.115086	-0.043642	0.706027
05421	1.013727	-2.107926	9.441407	0.004101	0.018519	-0.085879	-0.697438	0.115053	-0.043614	0.706003
05422	1.036663	-2.074373	9.513888	0.051951	0.001993	-0.020391	-0.697477	0.115002	-0.043617	0.705973
05423	1.007506	-2.066513	9.520127	0.060423	0.030673	-0.019129	-0.697510	0.114965	-0.043619	0.705947
05424	1.046074	-2.056760	9.550533	0.076022	-0.005254	0.012352	-0.697518	0.114924	-0.043611	0.705945
05425	1.084903	-2.047039	9.580909	0.091628	-0.041253	0.043838	-0.697517	0.114908	-0.043601	0.705950
05426	1.088721	-2.143252	9.576142	-0.003958	-0.043336	0.060481	-0.697482	0.114874	-0.043572	0.705992
05427	1.021505	-2.201300	9.625287	-0.050588	0.030037	0.113636	-0.697440	0.114868	-0.043555	0.706036
05428	0.993433	-2.193735	9.631333	-0.042144	0.058801	0.114886	-0.697405	0.114876	-0.043541	0.706069
05429	0.975590	-2.246577	9.613831	-0.097679	0.076311	0.107457	-0.697390	0.114883	-0.043524	0.706084
05430	1.023829	-2.210335	9.652936	-0.054234	0.031960	0.142664	-0.697395	0.114869	-0.043485	0.706084
05431	1.079710	-2.090309	9.627805	0.056591	-0.028928	0.098203	-0.697423	0.114830	-0.043453	0.706065
05432	1.074714	-2.022537	9.527628	0.100167	-0.036119	-0.014217	-0.697454	0.114797	-0.043442	0.706040
05433	1.095171	-2.008887	9.467323	0.099768	-0.063278	-0.073526	-0.697455	0.114772	-0.043423	0.706044
05434	1.118638	-2.005475	9.434330	0.095468	-0.090492	-0.103797	-0.697458	0.114733	-0.043441	0.706047
05435	1.092391	-2.008003	9.467832	0.099975	-0.061900	-0.073519	-0.697453	0.114678	-0.043475	0.706058
05436	1.060451	-2.047388	9.519817	0.072746	-0.024947	-0.017926	-0.697424	0.114644	-0.043522	0.706089
05437	0.986547	-2.143075	9.587336	-0.005755	0.056668	0.060499	-0.697384	0.114618	-0.043574	0.706130
05438	0.970737	-2.206392	9.597188	-0.065228	0.074047	0.082098	-0.697340	0.114590	-0.043611	0.706176
05439	0.950408	-2.172610	9.612016	-0.029033	0.094365	0.087040	-0.697310	0.114569	-0.043630	0.706208
05440	0.994631	-2.126554	9.623861	0.018408	0.050247	0.093238	-0.697292	0.114558	-0.043637	0.706226
05441	1.042323	-2.090337	9.663056	0.061947	0.005954	0.128476	-0.697262	0.114542	-0.043616	0.706260
05442	1.074765	-2.060256	9.638886	0.085505	-0.029643	0.101933	-0.697246	0.114504	-0.043621	0.706282
05443	1.101281	-2.066849	9.633278	0.077330	-0.057059	0.100712	-0.697221	0.114462	-0.043631	0.706313
05444	1.047612	-2.062311	9.672543	0.090062	-0.000276	0.132191	-0.697171	0.114442	-0.043653	0.706364
05445	1.078425	-2.109481	9.588697	0.025784	-0.038856	0.064248	-0.697121	0.114430	-0.043678	0.706414
05446	1.054187	-2.199200	9.589764	-0.061530	-0.013203	0.082129	-0.697065	0.114383	-0.043725	0.706473
05447	1.043894	-2.092292	9.567617	0.038150	-0.009298	0.036432	-0.697011	0.114328	-0.043814	0.706530
05448	0.971939	-2.141840	9.589104	-0.004847	0.064161	0.060454	-0.696958	0.114310	-0.043896	0.706581
05449	0.894176	-2.171147	9.555875	-0.040057	0.137738	0.026398	-0.696899	0.114283	-0.043944	0.706640
05450	0.910369	-2.118132	9.573593	0.015696	0.121797	0.033828	-0.696854	0.114287	-0.043952	0.706683
05451	0.937693	-2.125176	9.567824	0.007532	0.094349	0.032613	-0.696801	0.114290	-0.043946	0.706736
05452	0.970727	-2.095800	9.543483	0.031139	0.058761	0.006087	-0.696753	0.114332	-0.043957	0.706775
05453	0.996042	-2.150158	9.583380	-0.012669	0.039420	0.059229	-0.696708	0.114361	-0.043970	0.706815
05454	1.060320	-2.195032	9.653689	-0.040736	-0.016351	0.143930	-0.696678	0.114354	-0.044018	0.706842
05455	1.050086	-2.221891	9.644970	-0.068494	-0.007417	0.140211	-0.696635	0.114310	-0.044077	0.706887
05456	1.065542	-2.168427	9.662901	-0.012692	-0.023289	0.147655	-0.696602	0.114259	-0.044088	0.706928
05457	1.008226	-2.153806	9.674801	0.003803	0.033556	0.150045	-0.696559	0.114201	-0.044124	0.706977
05458	0.940543	-2.052123	9.531572	0.071580	0.082761	-0.018060	-0.696516	0.114148	-0.044148	0.707027
05459	0.966570	-2.058507	9.526104	0.063464	0.055311	-0.019257	-0.696467	0.114069	-0.044178	0.707086
05460	0.947905	-2.110828	9.508765	0.007832	0.072572	-0.026707	-0.696411	0.114013	-0.044172	0.707150
05461	0.885541	-2.132531	9.539133	-0.007505	0.137595	0.000973	-0.696370	0.113950	-0.044169	0.707201
05462	0.913171	-2.195360	9.606839	-0.055189	0.118193	0.083161	-0.696317	0.113903	-0.044147	0.707262
05463	0.907606	-2.154381	9.685251	0.000957	0.130258	0.149854	-0.696258	0.113856	-0.044142	0.707328
05464	0.909916	-2.163390	9.712896	-0.002876	0.130897	0.178880	-0.696206	0.113811	-0.044100	0.707389
05465	0.934288	-2.159083	9.680115	-0.007059	0.103516	0.148658	-0.696170	0.113788	-0.044052	0.707431
05466	0.958921	-2.154838	9.647297	-0.011228	0.076206	0.118439	-0.696123	0.113768	-0.043995	0.707484
05467	0.983155	-2.150493	9.614544	-0.015394	0.048813	0.088224	-0.696092	0.113709	-0.043969	0.707526
05468	1.015017	-2.196049	9.531120	-0.079522	0.009902	0.020355	-0.696061	0.113657	-0.043911	0.707568
05469	1.000347	-2.124092	9.527636	-0.011647	0.022290	-0.000059	-0.696044	0.113592	-0.043852	0.707600
05470	0.974622	-2.125413	9.561208	-0.007328	0.051046	0.030143	-0.696029	0.113505	-0.043812	0.707630
05471	0.978559	-2.086977	9.543222	0.024529	0.043553	0.004830	-0.696004	0.113413	-0.043787	0.707671
05472	0.918046	-2.061655	9.527790	0.044760	0.100598	-0.021881	-0.695977	0.113331	-0.043789	0.707711
05473	0.920942	-2.127189	9.628734	0.001343	0.109136	0.090528	-0.695955	0.113287	-0.043739	0.707743
05474	0.917595	-2.115986	9.601667	0.005322	0.109931	0.061485	-0.695924	0.113278	-0.043686	0.707778
05475	0.945518	-2.121657	9.596230	-0.002711	0.082446	0.060319	-0.695919	0.113250	-0.043609	0.707792
05476	1.001197	-2.133994	9.585157	-0.018828	0.026903	0.058001	-0.695909	0.113216	-0.043547	0.707811
05477	1.076351	-2.102879	9.619155	0.016937	-0.045144	0.092182	-0.695905	0.113147	-0.043489	0.707830
05478	1.049501	-2.047569	9.579453	0.060821	-0.024318	0.038994	-0.695894	0.113064	-0.043462	0.707856
05479	0.944665	-2.068639	9.552020	0.033287	0.077139	0.005953	-0.695880	0.112990	-0.043427	0.707883
05480	0.935424	-2.093766	9.543633	0.005479	0.086021	0.002218	-0.695858	0.112938	-0.043375	0.707916
05481	0.911756	-2.048735	9.531181	0.045417	0.106713	-0.021948	-0.695861	0.112859	-0.043350	0.707928
05482	0.827818	-2.083444	9.621883	0.030100	0.199822	0.064854	-0.695849	0.112805	-0.043315	0.707950
05483	0.838767	-2.142398	9.598907	-0.033699	0.188614	0.056239	-0.695838	0.112798	-0.043237	0.707966
05484	0.915016	-2.111472	9.632758	0.002141	0.116708	0.090442	-0.695845	0.112810	-0.043131	0.707965
05485	0.937665	-2.097144	9.572531	0.001961	0.089326	0.031224	-0.695873	0.112837	-0.043034	0.707938
05486	0.934526	-2.029435	9.472000	0.045537	0.082151	-0.081197	-0.695896	0.112860	-0.042931	0.707918
05487	0.977535	-2.028615	9.530001	0.057673	0.046409	-0.020533	-0.695912	0.112864	-0.042874	0.707905
05488	1.025015	-2.068378	9.510004	0.013788	-0.001049	-0.026532	-0.695912	0.112870	-0.042843	0.707907
05489	1.047296	-2.111322	9.523086	-0.025953	-0.020510	-0.002357	-0.695922	0.112846	-0.042820	0.707902
05490	1.051916	-2.073628	9.504794	0.005952	-0.027847	-0.027660	-0.695946	0.112809	-0.042762	0.707887
05491	0.974037	-2.072010	9.576792	0.022311	0.057162	0.033792	-0.695965	0.112800	-0.042715	0.707873
05492	0.976640	-2.081356	9.604350	0.018500	0.057839	0.062824	-0.695968	0.112782	-0.042705	0.707873
05493	0.943867	-2.167242	9.702120	-0.044823	0.102625	0.172622	-0.695972	0.112764	-0.042678	0.707874
05494	0.926289	-2.086173	9.670799	0.026878	0.115440	0.123128	-0.695994	0.112768	-0.042592	0.707857
05495	0.996106	-2.035325	9.649866	0.070677	0.043659	0.099314	-0.696030	0.112776	-0.042509	0.707826
05496	1.060676	-2.021307	9.647487	0.082696	-0.019997	0.100813	-0.696059	0.112790	-0.042439	0.707799
05497	1.065640	-2.060816	9.569719	0.026765	-0.031281	0.034159	-0.696069	0.112767	-0.042416	0.707794
05498	1.086914	-2.047067	9.509502	0.026679	-0.058636	-0.025024	-0.696075	0.112769	-0.042379	0.707790
05499	1.030855	-2.032785	9.520967	0.042734	-0.001647	-0.022801	-0.696083	0.112759	-0.042334	0.707786
05500	0.994750	-2.051984	9.517985	0.022883	0.035298	-0.025429	-0.696071	0.112780	-0.042276	0.707798
05501	0.934226	-2.074520	9.547952	0.007078	0.100290	0.002082	-0.696066	0.112810	-0.042217	0.707802
05502	0.929691	-2.110699	9.566606	-0.024661	0.109013	0.027376	-0.696071	0.112844	-0.042153	0.707795
05503	0.924924	-2.070008	9.644591	0.031429	0.121698	0.094015	-0.696102	0.112869	-0.042108	0.707764
05504	0.928025	-2.079631	9.672041	0.027611	0.122397	0.123043	-0.696140	0.112878	-0.042075	0.707727
05505	0.924821	-2.069405	9.644730	0.031573	0.123094	0.093997	-0.696180	0.112902	-0.042037	0.707686
05506	0.929861	-2.109684	9.566814	-0.024364	0.111742	0.027346	-0.696209	0.112924	-0.042029	0.707654
05507	1.007032	-2.109622	9.495273	-0.040312	0.027898	-0.034015	-0.696260	0.112896	-0.041975	0.707612
05508	1.080679	-2.022053	9.455843	0.035509	-0.051710	-0.083063	-0.696309	0.112851	-0.041944	0.707573
05509	1.065889	-1.930631	9.584631	0.151518	-0.026772	0.021179	-0.696352	0.112804	-0.041942	0.707538
05510	1.172317	-1.973544	9.713623	0.136339	-0.118701	0.166842	-0.696363	0.112796	-0.041949	0.707528
05511	1.094816	-2.106483	9.799518	0.024958	-0.029802	0.270216	-0.696347	0.112770	-0.041967	0.707547
05512	1.054294	-2.116314	9.769171	0.008925	0.007138	0.238526	-0.696321	0.112746	-0.041986	0.707575
05513	1.007525	-2.106395	9.684022	0.000653	0.044038	0.148756	-0.696319	0.112726	-0.042014	0.707578
05514	1.006908	-2.003077	9.564839	0.076086	0.028935	0.011044	-0.696342	0.112677	-0.042036	0.707562
05515	0.987015	-1.999813	9.474199	0.059898	0.037623	-0.079810	-0.696350	0.112594	-0.042126	0.707562
05516	1.012172	-2.006375	9.468933	0.052101	0.010155	-0.080888	-0.696364	0.112513	-0.042179	0.707559
05517	0.940710	-2.055742	9.490299	0.008166	0.083093	-0.057185	-0.696386	0.112445	-0.042200	0.707546
05518	0.889813	-2.061284	9.556540	0.016219	0.140175	0.003025	-0.696402	0.112423	-0.042147	0.707537
05519	0.945713	-2.073764	9.545592	0.000539	0.084428	0.000878	-0.696419	0.112427	-0.042080	0.707524
05520	0.906788	-2.082868	9.515193	-0.015577	0.121303	-0.030840	-0.696430	0.112430	-0.042006	0.707517
05521	0.913232	-2.101768	9.570157	-0.023292	0.121919	0.027228	-0.696436	0.112433	-0.041942	0.707514
05522	0.955410	-2.101018	9.628270	-0.010896	0.086487	0.087972	-0.696431	0.112432	-0.041927	0.707520
05523	0.966333	-2.084037	9.664498	0.013244	0.079210	0.120746	-0.696452	0.112453	-0.041905	0.707498
05524	0.981855	-2.030706	9.682086	0.069244	0.064113	0.128223	-0.696501	0.112443	-0.041939	0.707449
05525	1.047098	-2.048098	9.574495	0.029511	-0.011911	0.034193	-0.696529	0.112442	-0.041961	0.707420
05526	1.112958	-2.044887	9.599633	0.038015	-0.075511	0.064865	-0.696551	0.112419	-0.041995	0.707400
05527	1.143223	-1.958457	9.502243	0.101766	-0.118847	-0.044849	-0.696563	0.112375	-0.042041	0.707393
05528	1.041002	-1.991800	9.501596	0.069427	-0.017681	-0.049176	-0.696570	0.112327	-0.042091	0.707390
05529	1.014542	-2.072019	9.475479	-0.014380	0.006645	-0.060405	-0.696553	0.112280	-0.042146	0.707412
05530	1.027228	-2.065234	9.539195	0.005907	-0.000524	0.001414	-0.696547	0.112274	-0.042171	0.707416
05531	0.956740	-2.115586	9.560166	-0.038213	0.072319	0.025053	-0.696524	0.112260	-0.042224	0.707439
05532	0.969197	-2.109298	9.623788	-0.017933	0.065169	0.086868	-0.696543	0.112243	-0.042297	0.707418
05533	0.914476	-2.106636	9.662247	-0.006153	0.122266	0.117983	-0.696554	0.112241	-0.042358	0.707404
05534	0.890350	-2.064010	9.649129	0.033571	0.143354	0.093718	-0.696586	0.112264	-0.042383	0.707367
05535	0.942430	-2.068070	9.610636	0.021943	0.087562	0.062598	-0.696619	0.112285	-0.042410	0.707330
05536	0.971518	-2.028574	9.559130	0.049988	0.052203	0.007226	-0.696656	0.112287	-0.042427	0.707292
05537	0.975498	-1.992262	9.540574	0.081926	0.045001	-0.018070	-0.696697	0.112291	-0.042459	0.707249
05538	1.025622	-2.042594	9.548152	0.034608	-0.002872	0.005158	-0.696726	0.112313	-0.042451	0.707217
05539	1.085661	-2.019609	9.518581	0.051027	-0.066523	-0.022190	-0.696769	0.112303	-0.042504	0.707174
05540	1.095837	-2.060017	9.628233	0.035597	-0.065744	0.093967	-0.696784	0.112279	-0.042583	0.707158
05541	1.032820	-2.084054	9.657883	0.019337	-0.000773	0.121311	-0.696808	0.112268	-0.042641	0.707132
05542	0.994549	-2.104799	9.654645	-0.000804	0.036012	0.118585	-0.696832	0.112226	-0.042734	0.707110
05543	0.927880	-2.118807	9.656929	-0.013225	0.100954	0.116876	-0.696862	0.112179	-0.042814	0.707083
05544	0.919411	-2.099540	9.602243	-0.005383	0.101646	0.058791	-0.696902	0.112150	-0.042900	0.707043
05545	0.897832	-2.066548	9.616616	0.030405	0.122736	0.063548	-0.696946	0.112147	-0.042903	0.707000
05546	0.946911	-2.060006	9.550968	0.022785	0.066945	0.003435	-0.696979	0.112145	-0.042916	0.706967
05547	0.977027	-2.076468	9.573012	0.011249	0.039373	0.031457	-0.697025	0.112133	-0.042900	0.706924
05548	1.067975	-2.069389	9.565635	0.016177	-0.052417	0.032174	-0.697049	0.112101	-0.042923	0.706904
05549	1.041078	-2.072716	9.598689	0.020098	-0.023495	0.062223	-0.697079	0.112056	-0.042983	0.706878
05550	1.007840	-2.056383	9.576932	0.031784	0.005456	0.034192	-0.697108	0.112013	-0.043050	0.706852
05551	0.992356	-2.120144	9.586822	-0.028015	0.021671	0.055731	-0.697128	0.111966	-0.043123	0.706835
05552	0.956982	-2.150409	9.610998	-0.052112	0.058430	0.082020	-0.697154	0.111919	-0.043177	0.706814
05553	0.950600	-2.063790	9.643160	0.039653	0.064060	0.094266	-0.697186	0.111859	-0.043267	0.706787
05554	0.915077	-2.094232	9.667284	0.015534	0.100829	0.120547	-0.697223	0.111829	-0.043321	0.706752
05555	0.918301	-2.057758	9.648868	0.047482	0.093716	0.095252	-0.697241	0.111797	-0.043363	0.706736
05556	0.997546	-2.067711	9.605417	0.028411	0.009650	0.063226	-0.697277	0.111753	-0.043404	0.706705
05557	1.011703	-2.013860	9.623403	0.084507	-0.005160	0.070727	-0.697294	0.111691	-0.043421	0.706698
05558	0.970942	-2.023516	9.592840	0.068133	0.031533	0.038926	-0.697307	0.111641	-0.043445	0.706691
05559	0.978401	-2.073431	9.542549	0.008405	0.019346	0.001393	-0.697316	0.111611	-0.043470	0.706685
05560	0.935761	-2.130151	9.557796	-0.043760	0.063802	0.023911	-0.697330	0.111578	-0.043497	0.706675
05561	0.944764	-2.113020	9.594319	-0.019558	0.056773	0.056699	-0.697339	0.111501	-0.043537	0.706676
05562	0.928214	-2.099207	9.663664	0.008421	0.078136	0.119507	-0.697353	0.111437	-0.043591	0.706668
05563	0.914062	-2.038960	9.686988	0.072155	0.091665	0.127986	-0.697354	0.111393	-0.043629	0.706672
05564	0.949725	-2.095605	9.631304	0.004805	0.051217	0.089479	-0.697376	0.111373	-0.043642	0.706652
05565	0.983798	-2.018793	9.561606	0.064920	0.008095	0.008891	-0.697393	0.111355	-0.043664	0.706637
05566	0.977194	-2.055571	9.580281	0.033108	0.016558	0.034175	-0.697392	0.111324	-0.043709	0.706641
05567	0.978955	-2.086162	9.475078	-0.018847	0.004155	-0.061423	-0.697396	0.111312	-0.043763	0.706635
05568	1.005518	-2.092875	9.469863	-0.026372	-0.023406	-0.062392	-0.697411	0.111280	-0.043780	0.706625
05569	0.986539	-2.069454	9.511673	0.005458	-0.002104	-0.028629	-0.697439	0.111235	-0.043839	0.706600
05570	0.934083	-2.076220	9.577351	0.012992	0.055273	0.031378	-0.697452	0.111183	-0.043882	0.706593
05571	0.901554	-2.116033	9.628882	-0.015131	0.091967	0.086660	-0.697449	0.111104	-0.043935	0.706605
05572	0.940951	-2.115373	9.687566	-0.002373	0.056868	0.147527	-0.697483	0.111043	-0.043973	0.706578
05573	0.957007	-2.014888	9.659663	0.089540	0.034491	0.100713	-0.697506	0.110991	-0.044006	0.706562
05574	0.911567	-2.061790	9.647356	0.041133	0.078798	0.094154	-0.697520	0.110986	-0.044025	0.706547
05575	0.838664	-2.045687	9.566847	0.039933	0.143490	0.005183	-0.697527	0.111030	-0.043984	0.706537
05576	0.928482	-2.028584	9.532390	0.049198	0.051672	-0.022968	-0.697533	0.111079	-0.043931	0.706526
05577	1.007267	-2.028332	9.461648	0.034324	-0.032651	-0.083902	-0.697532	0.111108	-0.043914	0.706523
05578	1.020814	-2.021604	9.525330	0.054704	-0.039423	-0.022063	-0.697530	0.111140	-0.043904	0.706521
05579	0.971559	-2.105645	9.531330	-0.025659	0.012422	-0.003349	-0.697538	0.111166	-0.043913	0.706509
05580	0.912324	-2.139983	9.587768	-0.046271	0.077457	0.052859	-0.697540	0.111183	-0.043976	0.706500
05581	0.849298	-2.164586	9.616817	-0.063045	0.142359	0.080020	-0.697565	0.111157	-0.044064	0.706474
05582	0.818855	-2.158824	9.622134	-0.055448	0.171369	0.080950	-0.697601	0.111123	-0.044147	0.706439
05583	0.828317	-2.018959	9.671986	0.092359	0.162365	0.100673	-0.697650	0.111111	-0.044182	0.706390
05584	0.911505	-2.038848	9.656192	0.069837	0.078216	0.097852	-0.697679	0.111131	-0.044184	0.706358
05585	0.975421	-2.025192	9.654554	0.082906	0.014711	0.099738	-0.697689	0.111165	-0.044144	0.706346
05586	1.026111	-2.018109	9.589220	0.075705	-0.041292	0.039793	-0.697680	0.111188	-0.044108	0.706353
05587	1.046561	-2.051265	9.575041	0.040224	-0.061365	0.035104	-0.697657	0.111229	-0.044076	0.706371
05588	1.085276	-2.164515	9.592531	-0.066593	-0.094410	0.080050	-0.697648	0.111280	-0.044032	0.706375
05589	1.073162	-2.104376	9.615614	-0.002888	-0.080564	0.088505	-0.697637	0.111293	-0.044014	0.706385
05590	1.052116	-2.071160	9.629872	0.032764	-0.059081	0.093196	-0.697627	0.111279	-0.044055	0.706394
05591	0.955568	-2.068984	9.609410	0.031128	0.033981	0.063164	-0.697620	0.111264	-0.044120	0.706399
05592	0.920107	-2.043421	9.559842	0.046435	0.062861	0.006001	-0.697635	0.111270	-0.044191	0.706380
05593	0.831260	-2.014773	9.548197	0.072803	0.148376	-0.020290	-0.697650	0.111247	-0.044252	0.706364
05594	0.724837	-2.085968	9.564624	0.007220	0.256713	0.000198	-0.697674	0.111243	-0.044267	0.706340
05595	0.731473	-2.182673	9.560082	-0.088283	0.251705	0.017019	-0.697689	0.111241	-0.044248	0.706327
05596	0.854000	-2.190992	9.575658	-0.093898	0.131714	0.046158	-0.697698	0.111206	-0.044199	0.706327
05597	0.986985	-2.181923	9.627727	-0.075280	0.004233	0.108118	-0.697715	0.111152	-0.044156	0.706320
05598	1.020057	-2.083450	9.691216	0.033206	-0.024988	0.152213	-0.697757	0.111095	-0.044129	0.706290
05599	1.065459	-2.045414	9.731547	0.078110	-0.067547	0.187876	-0.697811	0.111067	-0.044116	0.706242
05600	1.081723	-2.068418	9.690185	0.046569	-0.087716	0.154173	-0.697852	0.111048	-0.044133	0.706203
05601	1.038713	-2.068697	9.631856	0.033763	-0.051419	0.093235	-0.697864	0.111007	-0.044158	0.706197
05602	0.954933	-2.002452	9.601815	0.091960	0.026621	0.041621	-0.697864	0.110966	-0.044194	0.706200
05603	0.962974	-2.052443	9.551530	0.032325	0.013830	0.004151	-0.697845	0.110933	-0.044227	0.706223
05604	0.929846	-2.102799	9.442684	-0.040216	0.036687	-0.094267	-0.697815	0.110904	-0.044241	0.706256
05605	0.918998	-2.052105	9.493394	0.019552	0.050820	-0.056804	-0.697801	0.110856	-0.044225	0.706279
05606	0.929120	-2.090931	9.603366	0.004151	0.051933	0.059353	-0.697795	0.110811	-0.044205	0.706292
05607	0.941447	-2.083242	9.667392	0.024561	0.045329	0.121196	-0.697792	0.110778	-0.044200	0.706301
05608	0.902760	-2.149538	9.709790	-0.031866	0.089498	0.172627	-0.697796	0.110766	-0.044149	0.706302
05609	0.914915	-2.085023	9.700484	0.028227	0.075171	0.151114	-0.697820	0.110721	-0.044122	0.706287
05610	0.931293	-2.050806	9.585873	0.036383	0.047158	0.034065	-0.697818	0.110712	-0.044078	0.706293
05611	0.884539	-2.087657	9.545910	-0.008476	0.090924	-0.001633	-0.697821	0.110719	-0.044070	0.706289
05612	0.858406	-2.034189	9.505265	0.034791	0.112344	-0.055074	-0.697808	0.110722	-0.044018	0.706306
05613	0.912071	-2.036205	9.467661	0.023969	0.056218	-0.085876	-0.697786	0.110724	-0.043951	0.706331
05614	0.907427	-2.072082	9.486323	-0.007916	0.064463	-0.060608	-0.697776	0.110733	-0.043892	0.706343
05615	0.923538	-2.074402	9.577648	0.008636	0.058034	0.030277	-0.697762	0.110731	-0.043861	0.706359
05616	1.051416	-2.102510	9.648316	-0.004215	-0.061693	0.117680	-0.697745	0.110708	-0.043876	0.706378
05617	1.055067	-2.122107	9.703428	-0.011862	-0.060807	0.175765	-0.697723	0.110627	-0.043943	0.706408
05618	0.965518	-2.092870	9.691763	0.014134	0.024857	0.149329	-0.697726	0.110574	-0.043989	0.706411
05619	0.971087	-2.133184	9.614046	-0.041598	0.011716	0.082842	-0.697718	0.110575	-0.044025	0.706417
05620	0.917938	-2.027631	9.532489	0.044813	0.053907	-0.024055	-0.697710	0.110577	-0.044068	0.706422
05621	0.870546	-2.065508	9.492342	-0.000136	0.097550	-0.059780	-0.697695	0.110582	-0.044099	0.706434
05622	0.813688	-2.053186	9.502585	0.014575	0.154976	-0.058070	-0.697664	0.110611	-0.044097	0.706460
05623	0.821689	-2.026620	9.511435	0.042720	0.148259	-0.054309	-0.697627	0.110674	-0.044056	0.706489
05624	0.877128	-2.086067	9.546942	-0.007683	0.099876	-0.001719	-0.697602	0.110762	-0.043973	0.706505
05625	0.875809	-2.076113	9.519390	-0.003759	0.100402	-0.030767	-0.697577	0.110830	-0.043910	0.706523
05626	0.928610	-2.058535	9.614296	0.033628	0.058434	0.063041	-0.697571	0.110888	-0.043859	0.706523
05627	1.054417	-2.077289	9.657406	0.024884	-0.061435	0.121497	-0.697565	0.110921	-0.043899	0.706521
05628	1.079602	-2.131047	9.698106	-0.018147	-0.081470	0.174964	-0.697535	0.110933	-0.043937	0.706546
05629	1.021458	-2.062324	9.635068	0.036220	-0.031804	0.093309	-0.697524	0.110927	-0.043979	0.706556
05630	0.997074	-2.019937	9.621694	0.075570	-0.010161	0.068885	-0.697534	0.110959	-0.044018	0.706539
05631	0.921141	-1.995522	9.513185	0.077532	0.054044	-0.049371	-0.697522	0.110995	-0.044075	0.706541
05632	0.925493	-2.083270	9.481085	-0.014012	0.048357	-0.061534	-0.697496	0.111013	-0.044116	0.706562
05633	0.844898	-2.028327	9.477936	0.039827	0.126659	-0.084296	-0.697466	0.111022	-0.044156	0.706587
05634	0.911993	-2.080969	9.577329	0.009919	0.071177	0.030190	-0.697424	0.111064	-0.044127	0.706624
05635	0.869239	-2.128555	9.564431	-0.039012	0.114809	0.023468	-0.697415	0.111129	-0.044087	0.706625
05636	0.905786	-2.108203	9.568149	-0.018073	0.079856	0.026405	-0.697394	0.111191	-0.044044	0.706639
05637	0.904153	-2.155065	9.613953	-0.053864	0.088082	0.080706	-0.697392	0.111221	-0.044026	0.706637
05638	0.880590	-2.112119	9.600620	-0.014569	0.109752	0.056261	-0.697408	0.111236	-0.044017	0.706620
05639	0.890450	-2.095329	9.637025	0.009750	0.103272	0.089070	-0.697433	0.111249	-0.044017	0.706593
05640	0.894852	-2.058708	9.618575	0.041807	0.096586	0.063797	-0.697466	0.111278	-0.044002	0.706557
05641	0.966383	-2.017627	9.626245	0.083681	0.025957	0.069703	-0.697473	0.111321	-0.043970	0.706545
05642	1.099645	-2.008901	9.678538	0.103437	-0.101063	0.132065	-0.697453	0.111338	-0.043975	0.706562
05643	1.117075	-2.032110	9.637067	0.072048	-0.121654	0.098438	-0.697414	0.111353	-0.043969	0.706598
05644	1.063917	-2.096376	9.587821	-0.001175	-0.070927	0.058888	-0.697364	0.111415	-0.043905	0.706641
05645	1.039889	-2.099912	9.620245	0.002256	-0.041719	0.088745	-0.697343	0.111491	-0.043824	0.706656
05646	1.009917	-2.083540	9.597886	0.013407	-0.012754	0.060516	-0.697322	0.111525	-0.043779	0.706673
05647	0.986953	-2.096936	9.657935	0.012951	0.016600	0.119406	-0.697311	0.111496	-0.043789	0.706689
05648	0.944269	-2.097310	9.599468	-0.000198	0.052643	0.058350	-0.697304	0.111446	-0.043808	0.706702
05649	0.952544	-2.023274	9.562791	0.063866	0.038550	0.007821	-0.697272	0.111428	-0.043803	0.706737
05650	0.874521	-2.044634	9.500335	0.029729	0.110192	-0.056220	-0.697277	0.111411	-0.043834	0.706732
05651	0.867704	-2.024797	9.445604	0.037499	0.110536	-0.114310	-0.697274	0.111392	-0.043850	0.706738
05652	0.859330	-2.051666	9.436706	0.009421	0.118461	-0.118097	-0.697266	0.111399	-0.043854	0.706744
05653	0.815985	-2.032425	9.510687	0.044217	0.169017	-0.054653	-0.697247	0.111447	-0.043814	0.706758
05654	0.905184	-2.117571	9.596013	-0.020765	0.092381	0.055340	-0.697228	0.111528	-0.043744	0.706768
05655	1.021872	-2.085304	9.689785	0.030723	-0.013243	0.151425	-0.697195	0.111600	-0.043685	0.706793
05656	1.140879	-2.129889	9.724144	-0.005466	-0.125788	0.206353	-0.697162	0.111640	-0.043673	0.706820
05657	1.140762	-2.130037	9.724126	-0.005369	-0.125119	0.206361	-0.697142	0.111656	-0.043670	0.706838
05658	1.107986	-2.057636	9.628555	0.045460	-0.103816	0.094771	-0.697132	0.111657	-0.043722	0.706843
05659	1.070600	-2.079019	9.624714	0.024526	-0.067577	0.091779	-0.697127	0.111631	-0.043798	0.706848
05660	0.983159	-2.004367	9.566814	0.085716	0.010710	0.010783	-0.697086	0.111597	-0.043853	0.706891
05661	0.945845	-2.025251	9.563037	0.064749	0.046949	0.007778	-0.697059	0.111569	-0.043891	0.706919
05662	0.906255	-2.036227	9.531774	0.047637	0.083070	-0.024272	-0.697022	0.111572	-0.043913	0.706954
05663	0.916230	-2.086372	9.481303	-0.011865	0.069437	-0.061658	-0.696988	0.111591	-0.043918	0.706984
05664	0.921806	-2.106408	9.536102	-0.019503	0.070498	-0.003581	-0.696955	0.111634	-0.043886	0.707012
05665	0.963178	-2.105706	9.594812	-0.006087	0.035952	0.057510	-0.696931	0.111672	-0.043881	0.707030
05666	1.037263	-2.074464	9.630014	0.032291	-0.034236	0.092578	-0.696924	0.111725	-0.043869	0.707029
05667	1.067947	-2.091067	9.652278	0.021437	-0.061815	0.120855	-0.696902	0.111747	-0.043905	0.707045
05668	1.040292	-2.038901	9.611507	0.064494	-0.040138	0.067324	-0.696885	0.111735	-0.043971	0.707060
05669	0.995560	-2.087333	9.598562	0.015315	0.003174	0.060521	-0.696862	0.111725	-0.044044	0.707079
05670	0.909141	-2.070001	9.613694	0.036604	0.089166	0.062801	-0.696829	0.111717	-0.044119	0.707108
05671	0.900051	-2.097537	9.604693	0.008490	0.096932	0.059011	-0.696779	0.111695	-0.044181	0.707157
05672	0.891101	-2.124710	9.595753	-0.019611	0.104751	0.055219	-0.696732	0.111667	-0.044223	0.707205
05673	0.920803	-2.140669	9.618267	-0.030460	0.077167	0.083500	-0.696690	0.111646	-0.044239	0.707249
05674	0.937996	-2.163263	9.576972	-0.061751	0.056355	0.049916	-0.696670	0.111621	-0.044230	0.707274
05675	0.963732	-2.045562	9.585802	0.054876	0.028496	0.036012	-0.696662	0.111625	-0.044245	0.707279
05676	0.916994	-2.083623	9.545393	0.009493	0.071612	0.000144	-0.696652	0.111611	-0.044284	0.707289
05677	0.928698	-2.076891	9.609311	0.030028	0.065575	0.062009	-0.696644	0.111614	-0.044299	0.707296
05678	0.871214	-2.008303	9.546088	0.083893	0.115532	-0.019848	-0.696638	0.111671	-0.044257	0.707295
05679	0.981809	-2.022541	9.498557	0.059725	0.002282	-0.051866	-0.696618	0.111716	-0.044246	0.707309
05680	1.025091	-2.032040	9.584775	0.069423	-0.031892	0.038306	-0.696577	0.111726	-0.044296	0.707344
05681	1.053938	-2.162033	9.566037	-0.061100	-0.059724	0.050727	-0.696542	0.111713	-0.044339	0.707378
05682	1.096782	-2.170850	9.652461	-0.051374	-0.093897	0.140908	-0.696519	0.111701	-0.044318	0.707404
05683	1.089177	-2.083841	9.684804	0.040279	-0.085894	0.153010	-0.696501	0.111656	-0.044360	0.707426
05684	1.005265	-2.075761	9.727424	0.057508	0.000366	0.184252	-0.696483	0.111603	-0.044401	0.707449
05685	0.932319	-2.117251	9.719567	0.015177	0.071973	0.178135	-0.696459	0.111538	-0.044428	0.707482
05686	0.907916	-2.140344	9.619564	-0.029573	0.086131	0.083428	-0.696427	0.111468	-0.044426	0.707524
05687	0.882758	-2.096422	9.606542	0.009512	0.108022	0.058895	-0.696392	0.111401	-0.044412	0.707570
05688	0.877211	-2.142341	9.465075	-0.066565	0.100492	-0.069370	-0.696370	0.111359	-0.044410	0.707598
05689	0.913519	-2.073614	9.423671	-0.009382	0.058268	-0.120604	-0.696345	0.111312	-0.044376	0.707633
05690	0.947202	-1.984978	9.514951	0.095779	0.031419	-0.047368	-0.696352	0.111302	-0.044348	0.707629
05691	1.052137	-2.025449	9.646352	0.083926	-0.059204	0.099477	-0.696311	0.111312	-0.044379	0.707666
05692	1.034908	-2.126733	9.674025	-0.008272	-0.037094	0.146196	-0.696280	0.111323	-0.044436	0.707691
05693	0.941771	-2.136423	9.679807	-0.015559	0.055908	0.144548	-0.696255	0.111313	-0.044456	0.707716
05694	0.897015	-2.127622	9.593528	-0.025193	0.091421	0.054338	-0.696227	0.111289	-0.044482	0.707746
05695	0.866865	-2.121666	9.598646	-0.018201	0.120532	0.055042	-0.696202	0.111219	-0.044547	0.707777
05696	0.910632	-2.150065	9.552665	-0.056344	0.071081	0.020787	-0.696181	0.111101	-0.044630	0.707811
05697	0.879064	-2.143514	9.558036	-0.049365	0.100187	0.021487	-0.696195	0.110979	-0.044691	0.707813
05698	0.902331	-2.024868	9.567322	0.067382	0.072885	0.007602	-0.696206	0.110888	-0.044699	0.707815
05699	0.891035	-2.040987	9.531156	0.043082	0.080284	-0.025236	-0.696205	0.110863	-0.044686	0.707821
05700	0.883569	-2.067420	9.522232	0.014944	0.087947	-0.029034	-0.696212	0.110882	-0.044639	0.707815
05701	0.904421	-2.043008	9.435098	0.019646	0.059475	-0.116863	-0.696199	0.110929	-0.044563	0.707825
05702	0.918137	-2.035678	9.498956	0.040236	0.053711	-0.054991	-0.696166	0.111004	-0.044492	0.707850
05703	0.912152	-2.062862	9.489733	0.012088	0.061289	-0.058788	-0.696121	0.111082	-0.044464	0.707884
05704	0.882991	-2.104470	9.540202	-0.016863	0.097842	-0.003810	-0.696084	0.111162	-0.044441	0.707909
05705	0.907595	-2.147710	9.553484	-0.055752	0.077164	0.020744	-0.696055	0.111224	-0.044415	0.707929
05706	0.920355	-2.140969	9.617306	-0.035155	0.071428	0.082616	-0.696043	0.111254	-0.044406	0.707937
05707	0.988676	-2.145840	9.671447	-0.028307	0.008702	0.143121	-0.696036	0.111243	-0.044450	0.707943
05708	1.053250	-2.141094	9.698215	-0.017572	-0.054182	0.174592	-0.696014	0.111223	-0.044541	0.707962
05709	1.045652	-2.121830	9.643467	-0.009791	-0.053978	0.116511	-0.696007	0.111182	-0.044613	0.707971
05710	0.993144	-2.026843	9.589237	0.072002	-0.010767	0.038333	-0.695988	0.111155	-0.044665	0.707990
05711	0.865975	-2.011247	9.544821	0.078935	0.110219	-0.020841	-0.695962	0.111158	-0.044717	0.708012
05712	0.878298	-2.014846	9.448524	0.055475	0.088633	-0.112445	-0.695917	0.111194	-0.044745	0.708049
05713	0.886215	-2.045555	9.530626	0.043983	0.090012	-0.025325	-0.695844	0.111259	-0.044758	0.708109
05714	0.879831	-2.073404	9.521277	0.015826	0.097597	-0.029127	-0.695780	0.111354	-0.044736	0.708159
05715	0.874030	-2.101340	9.511851	-0.012346	0.105105	-0.032929	-0.695711	0.111467	-0.044714	0.708210
05716	0.874061	-2.149333	9.557188	-0.048200	0.113151	0.021352	-0.695664	0.111604	-0.044668	0.708238
05717	0.956506	-2.204580	9.560462	-0.100673	0.035430	0.044600	-0.695641	0.111734	-0.044632	0.708242
05718	0.978763	-2.124883	9.587394	-0.015888	0.015618	0.055987	-0.695644	0.111832	-0.044621	0.708224
05719	0.950674	-2.120379	9.591977	-0.009010	0.044758	0.056645	-0.695666	0.111896	-0.044654	0.708191
05720	1.000448	-2.103235	9.687392	0.029211	0.004077	0.150705	-0.695662	0.111920	-0.044702	0.708188
05721	1.069766	-2.061480	9.695868	0.072177	-0.065879	0.156987	-0.695645	0.111907	-0.044758	0.708203
05722	1.009084	-2.040567	9.678232	0.089704	-0.008404	0.129256	-0.695645	0.111912	-0.044787	0.708200
05723	0.969476	-1.995415	9.573399	0.111945	0.019771	0.013737	-0.695599	0.111959	-0.044786	0.708238
05724	0.993027	-2.095134	9.472222	-0.006801	-0.009767	-0.060839	-0.695567	0.112016	-0.044775	0.708262
05725	0.964781	-2.089938	9.476968	0.000054	0.019378	-0.060191	-0.695533	0.112052	-0.044782	0.708289
05726	0.994126	-2.153178	9.545074	-0.046402	-0.000848	0.022492	-0.695509	0.112107	-0.044797	0.708302
05727	1.014362	-2.177186	9.691048	-0.037297	-0.005709	0.171503	-0.695498	0.112163	-0.044834	0.708302
05728	0.950392	-2.194033	9.691386	-0.051937	0.058795	0.168988	-0.695507	0.112223	-0.044864	0.708282
05729	0.833954	-2.162685	9.683154	-0.021019	0.173194	0.142498	-0.695526	0.112281	-0.044903	0.708251
05730	0.796800	-2.128427	9.605544	-0.002684	0.201638	0.055995	-0.695536	0.112327	-0.044964	0.708230
05731	0.807444	-2.065485	9.596276	0.057700	0.188508	0.034538	-0.695531	0.112366	-0.044963	0.708229
05732	0.911533	-2.105362	9.540200	0.006407	0.081712	-0.000851	-0.695542	0.112436	-0.044914	0.708211
05733	0.992842	-2.045578	9.585290	0.073927	0.005352	0.038323	-0.695543	0.112491	-0.044818	0.708207
05734	1.063188	-2.049378	9.639506	0.081140	-0.057149	0.098949	-0.695528	0.112551	-0.044739	0.708217
05735	1.088254	-2.091683	9.652855	0.042407	-0.077973	0.123568	-0.695513	0.112595	-0.044691	0.708228
05736	1.074740	-2.145486	9.634541	-0.013998	-0.063767	0.115973	-0.695497	0.112621	-0.044669	0.708241
05737	0.998500	-2.168177	9.571175	-0.049319	0.006845	0.051537	-0.695480	0.112625	-0.044675	0.708256
05738	0.993021	-2.205472	9.589482	-0.081328	0.014551	0.076779	-0.695494	0.112605	-0.044743	0.708242
05739	0.945425	-2.130571	9.590238	-0.007491	0.058515	0.056575	-0.695506	0.112552	-0.044787	0.708236
05740	0.903303	-2.075481	9.645820	0.058659	0.103107	0.094449	-0.695542	0.112525	-0.044830	0.708202
05741	0.841849	-2.110926	9.513669	-0.004027	0.151317	-0.032519	-0.695571	0.112501	-0.044861	0.708175
05742	0.913594	-2.078119	9.549885	0.035363	0.081860	0.002891	-0.695604	0.112472	-0.044871	0.708147
05743	0.938273	-2.073275	9.517843	0.032583	0.053725	-0.026768	-0.695625	0.112454	-0.044846	0.708131
05744	0.978510	-2.071237	9.577175	0.046580	0.019788	0.034507	-0.695645	0.112453	-0.044798	0.708114
05745	1.011602	-2.039309	9.554168	0.072098	-0.015041	0.008658	-0.695640	0.112512	-0.044718	0.708115
05746	1.003222	-2.055820	9.517575	0.047763	-0.007912	-0.024187	-0.695647	0.112563	-0.044634	0.708105
05747	1.036481	-2.128194	9.613146	-0.002440	-0.027975	0.087579	-0.695639	0.112628	-0.044592	0.708105
05748	1.013648	-2.142947	9.672698	-0.003371	0.001840	0.146267	-0.695622	0.112650	-0.044609	0.708118
05749	0.977838	-2.164594	9.668369	-0.024923	0.037686	0.143062	-0.695623	0.112655	-0.044611	0.708116
05750	0.922145	-2.106421	9.632426	0.024396	0.088232	0.089970	-0.695644	0.112668	-0.044585	0.708094
05751	0.944704	-2.091822	9.572868	0.025507	0.059793	0.031284	-0.695682	0.112673	-0.044573	0.708057
05752	0.923662	-2.068637	9.426782	0.016504	0.065718	-0.117739	-0.695708	0.112661	-0.044568	0.708034
05753	0.904131	-2.045993	9.468261	0.047637	0.088546	-0.084306	-0.695740	0.112670	-0.044562	0.708002
05754	0.963232	-2.067059	9.486078	0.030639	0.032488	-0.056446	-0.695759	0.112694	-0.044536	0.707980
05755	0.990525	-2.119514	9.526889	-0.011861	0.011818	-0.002753	-0.695762	0.112750	-0.044482	0.707972
05756	1.060005	-2.123757	9.581152	-0.004376	-0.050580	0.057968	-0.695761	0.112799	-0.044463	0.707967
05757	1.088748	-2.129682	9.576209	-0.010891	-0.078461	0.057390	-0.695751	0.112861	-0.044441	0.707968
05758	1.120422	-2.145543	9.598656	-0.021216	-0.105986	0.085859	-0.695738	0.112922	-0.044404	0.707973
05759	1.085923	-2.167203	9.594177	-0.042812	-0.070182	0.082639	-0.695725	0.112981	-0.044369	0.707978
05760	1.061734	-2.125141	9.580653	-0.003993	-0.047831	0.057982	-0.695735	0.113016	-0.044387	0.707962
05761	1.036758	-2.083240	9.567184	0.034802	-0.025531	0.033322	-0.695733	0.113029	-0.044417	0.707960
05762	1.019338	-2.127918	9.521389	-0.017844	-0.011925	-0.003331	-0.695711	0.113040	-0.044479	0.707976
05763	0.932876	-2.112451	9.535714	0.001942	0.074363	-0.001621	-0.695685	0.113058	-0.044553	0.707994
05764	0.969073	-2.102208	9.567394	0.019915	0.040254	0.030655	-0.695667	0.113060	-0.044649	0.708005
05765	0.894358	-2.136460	9.531084	-0.019646	0.110863	-0.004873	-0.695653	0.113078	-0.044729	0.708011
05766	0.817765	-2.104372	9.581844	0.024546	0.190957	0.029659	-0.695635	0.113142	-0.044770	0.708016
05767	0.928844	-2.117595	9.534967	0.002236	0.077105	-0.001643	-0.695607	0.113245	-0.044767	0.708027
05768	1.022791	-2.165343	9.602426	-0.028818	-0.006906	0.083803	-0.695580	0.113339	-0.044772	0.708038
05769	1.058566	-2.144885	9.606536	-0.006968	-0.041362	0.087054	-0.695557	0.113422	-0.044761	0.708048
05770	1.040427	-2.123406	9.647644	0.024132	-0.018326	0.120463	-0.695541	0.113519	-0.044744	0.708050
05771	1.020848	-2.045183	9.615739	0.095019	-0.002818	0.070546	-0.695511	0.113620	-0.044761	0.708061
05772	1.030470	-2.086186	9.537345	0.039657	-0.018197	0.004292	-0.695489	0.113703	-0.044820	0.708066
05773	1.016278	-2.141965	9.518566	-0.016868	-0.004470	-0.003323	-0.695456	0.113752	-0.044910	0.708085
05774	0.964841	-2.105932	9.537126	0.024553	0.046831	0.001580	-0.695422	0.113785	-0.045016	0.708107
05775	0.947109	-2.151637	9.491016	-0.028153	0.060215	-0.035084	-0.695398	0.113816	-0.045121	0.708119
05776	0.913282	-2.184921	9.513695	-0.053713	0.096313	-0.009311	-0.695393	0.113854	-0.045200	0.708112
05777	0.803744	-2.184817	9.587373	-0.035344	0.211856	0.050934	-0.695397	0.113875	-0.045275	0.708100
05778	0.806580	-2.149124	9.569044	-0.003144	0.205738	0.025685	-0.695427	0.113923	-0.045330	0.708060
05779	0.849855	-2.215205	9.540679	-0.072697	0.162249	0.016978	-0.695428	0.114017	-0.045330	0.708043
05780	0.926234	-2.193549	9.604036	-0.036628	0.093480	0.081603	-0.695465	0.114139	-0.045316	0.707988
05781	1.009739	-2.200870	9.561947	-0.052151	0.008092	0.050955	-0.695497	0.114238	-0.045289	0.707942
05782	1.177891	-2.167893	9.620351	-0.007111	-0.152837	0.117818	-0.695521	0.114311	-0.045270	0.707909
05783	1.305293	-2.033068	9.688952	0.139682	-0.276406	0.168146	-0.695539	0.114311	-0.045334	0.707887
05784	1.242242	-2.060768	9.716597	0.120593	-0.211716	0.194451	-0.695529	0.114308	-0.045487	0.707887
05785	1.132139	-2.117342	9.675531	0.058945	-0.106244	0.155563	-0.695489	0.114344	-0.045590	0.707914
05786	0.968716	-2.173145	9.671230	0.006327	0.056733	0.146751	-0.695449	0.114384	-0.045682	0.707941
05787	0.866009	-2.202352	9.639346	-0.027092	0.155686	0.111644	-0.695416	0.114389	-0.045768	0.707967
05788	0.830584	-2.177858	9.589265	-0.012928	0.184302	0.054065	-0.695395	0.114388	-0.045841	0.707983
05789	0.911165	-2.184594	9.547654	-0.028338	0.098879	0.023460	-0.695391	0.114351	-0.045925	0.707988
05790	0.947904	-2.126499	9.534260	0.025797	0.057793	0.001518	-0.695406	0.114319	-0.046003	0.707973
05791	0.960901	-2.186380	9.510969	-0.037206	0.042731	-0.006622	-0.695435	0.114293	-0.046072	0.707944
05792	0.999413	-2.185369	9.570398	-0.022867	0.009106	0.054763	-0.695485	0.114273	-0.046106	0.707896
05793	1.013935	-2.141887	9.616482	0.030039	-0.002745	0.091431	-0.695514	0.114277	-0.046139	0.707864
05794	0.984269	-2.136857	9.621262	0.036536	0.026559	0.091937	-0.695529	0.114262	-0.046167	0.707851
05795	0.954641	-2.131657	9.626068	0.043015	0.055802	0.092439	-0.695533	0.114255	-0.046188	0.707846
05796	0.887847	-2.137654	9.598904	0.031378	0.119753	0.060583	-0.695514	0.114248	-0.046160	0.707868
05797	0.843419	-2.175816	9.557676	-0.015016	0.161441	0.024406	-0.695504	0.114268	-0.046133	0.707876
05798	0.874430	-2.191149	9.580366	-0.025164	0.133906	0.052940	-0.695494	0.114288	-0.046114	0.707884
05799	0.958106	-2.254108	9.611728	-0.080232	0.055865	0.105716	-0.695488	0.114284	-0.046098	0.707892
05800	1.020535	-2.237386	9.611844	-0.064550	-0.006999	0.108538	-0.695494	0.114242	-0.046117	0.707892
05801	1.003554	-2.177915	9.635433	-0.001427	0.009496	0.116658	-0.695502	0.114200	-0.046160	0.707888
05802	0.974802	-2.125213	9.594928	0.041023	0.031729	0.062874	-0.695512	0.114164	-0.046172	0.707883
05803	0.935504	-2.136773	9.563077	0.022941	0.066996	0.030503	-0.695538	0.114132	-0.046228	0.707858
05804	0.919330	-2.133479	9.471782	0.006163	0.072998	-0.060447	-0.695538	0.114094	-0.046253	0.707864
05805	0.916849	-2.180399	9.517366	-0.029774	0.080719	-0.006179	-0.695523	0.114078	-0.046250	0.707880
05806	1.010436	-2.178912	9.540263	-0.024193	-0.010364	0.025227	-0.695498	0.114046	-0.046245	0.707910
05807	1.018611	-2.161694	9.577157	0.000402	-0.015696	0.058086	-0.695457	0.114031	-0.046263	0.707952
05808	0.977855	-2.163265	9.517773	-0.013867	0.019229	-0.003336	-0.695424	0.114060	-0.046258	0.707980
05809	0.980256	-2.173771	9.545078	-0.017620	0.020242	0.025706	-0.695378	0.114094	-0.046275	0.708019
05810	0.973220	-2.201280	9.535667	-0.045882	0.027271	0.021889	-0.695336	0.114107	-0.046303	0.708056
05811	0.992123	-2.120621	9.563703	0.039247	0.008956	0.033334	-0.695305	0.114121	-0.046310	0.708084
05812	1.031647	-2.119141	9.623205	0.053732	-0.024514	0.094766	-0.695269	0.114115	-0.046319	0.708120
05813	1.015248	-2.163005	9.577218	0.000940	-0.011597	0.058092	-0.695237	0.114112	-0.046333	0.708151
05814	0.998810	-2.206803	9.531249	-0.051848	0.001347	0.021417	-0.695213	0.114096	-0.046341	0.708176
05815	0.947106	-2.169025	9.550088	-0.010832	0.052911	0.026161	-0.695195	0.114044	-0.046363	0.708201
05816	0.890022	-2.111107	9.514161	0.037830	0.103806	-0.027190	-0.695176	0.114021	-0.046384	0.708222
05817	0.877118	-2.117871	9.450175	0.017184	0.109993	-0.089101	-0.695161	0.114001	-0.046411	0.708238
05818	0.931793	-2.175599	9.486390	-0.031304	0.060497	-0.035754	-0.695132	0.114005	-0.046427	0.708265
05819	0.955690	-2.218463	9.499727	-0.069690	0.039170	-0.010986	-0.695105	0.114038	-0.046469	0.708283
05820	0.941032	-2.217748	9.595606	-0.046456	0.063341	0.080413	-0.695091	0.114108	-0.046502	0.708283
05821	0.920139	-2.244584	9.681972	-0.051603	0.093737	0.167991	-0.695072	0.114194	-0.046565	0.708284
05822	0.985792	-2.239642	9.709151	-0.039490	0.031331	0.199947	-0.695070	0.114254	-0.046596	0.708274
05823	1.017734	-2.208555	9.686385	-0.013465	-0.003268	0.174272	-0.695070	0.114287	-0.046608	0.708268
05824	1.021749	-2.124564	9.623065	0.054839	-0.016189	0.094777	-0.695080	0.114264	-0.046651	0.708259
05825	1.065483	-2.141740	9.549884	0.021735	-0.067299	0.031986	-0.695068	0.114232	-0.046689	0.708274
05826	1.037796	-2.146773	9.582037	0.024247	-0.037579	0.061475	-0.695036	0.114188	-0.046749	0.708308
05827	1.035698	-2.146386	9.582351	0.024335	-0.036921	0.061478	-0.695005	0.114101	-0.046778	0.708351
05828	0.965104	-2.142164	9.527765	0.016149	0.026493	0.000449	-0.694995	0.114033	-0.046812	0.708369
05829	0.976166	-2.087653	9.546827	0.072974	0.014709	0.008084	-0.694965	0.113992	-0.046825	0.708404
05830	0.966084	-2.104203	9.510255	0.048512	0.021251	-0.024780	-0.694931	0.113975	-0.046835	0.708440
05831	0.973985	-2.087420	9.547100	0.073139	0.016090	0.008081	-0.694901	0.113975	-0.046872	0.708467
05832	0.849085	-2.131568	9.573911	0.037442	0.144125	0.031201	-0.694883	0.113997	-0.046888	0.708480
05833	0.864632	-2.191097	9.550491	-0.025454	0.128541	0.023125	-0.694867	0.114036	-0.046878	0.708490
05834	0.878642	-2.194335	9.642034	-0.008474	0.124239	0.114066	-0.694882	0.114039	-0.046836	0.708478
05835	0.909570	-2.208828	9.665027	-0.018423	0.096658	0.142679	-0.694908	0.114030	-0.046784	0.708457
05836	0.928299	-2.126954	9.693425	0.066799	0.078836	0.154132	-0.694971	0.114020	-0.046737	0.708400
05837	0.957125	-2.234694	9.619481	-0.055185	0.046531	0.108964	-0.695040	0.114046	-0.046709	0.708330
05838	0.853327	-2.253117	9.559675	-0.085729	0.144681	0.044483	-0.695135	0.114040	-0.046698	0.708239
05839	0.743242	-2.251166	9.445235	-0.108679	0.241941	-0.078096	-0.695238	0.113971	-0.046741	0.708146
05840	0.659394	-2.198536	9.441093	-0.057961	0.321983	-0.102097	-0.695342	0.113935	-0.046765	0.708048
05841	0.766685	-2.095560	9.437771	0.040986	0.211679	-0.117111	-0.695440	0.113963	-0.046731	0.707949
05842	1.090548	-2.041766	9.521545	0.110078	-0.103547	-0.014979	-0.695513	0.113967	-0.046713	0.707878
05843	1.162102	-2.008039	9.558718	0.150864	-0.172039	0.020899	-0.695554	0.113976	-0.046714	0.707836
05844	1.071954	-1.926810	9.659830	0.253053	-0.074308	0.092081	-0.695597	0.114008	-0.046676	0.707791
05845	0.998970	-1.962177	9.810324	0.252426	0.014371	0.238512	-0.695605	0.114025	-0.046683	0.707780
05846	1.022830	-2.061438	9.896797	0.174323	0.000379	0.346639	-0.695578	0.113886	-0.046758	0.707824
05847	1.130347	-2.185344	9.997761	0.074052	-0.099215	0.482617	-0.695510	0.113541	-0.047028	0.707929
05848	1.129870	-2.326172	9.851869	-0.096975	-0.120336	0.371767	-0.695410	0.112987	-0.047510	0.708083
05849	1.105016	-2.445309	9.747750	-0.237331	-0.118641	0.294182	-0.695308	0.112292	-0.048163	0.708250
05850	0.930615	-2.368932	9.634920	-0.187618	0.023225	0.150936	-0.695192	0.111549	-0.048870	0.708432
05851	0.745150	-2.253942	9.599330	-0.082722	0.182331	0.073795	-0.695104	0.110865	-0.049535	0.708580
05852	0.769855	-2.157363	9.570081	0.004077	0.135273	0.026774	-0.695042	0.110256	-0.050101	0.708696
05853	0.807334	-2.146527	9.508243	-0.000414	0.077780	-0.032095	-0.695002	0.109742	-0.050542	0.708784
05854	0.856767	-2.118228	9.483239	0.019710	0.014674	-0.058091	-0.694962	0.109350	-0.050819	0.708864
05855	1.003892	-2.180541	9.385757	-0.065845	-0.145320	-0.126122	-0.694914	0.109093	-0.050941	0.708942
05856	1.140199	-2.250833	9.411537	-0.132133	-0.281017	-0.073750	-0.694869	0.108889	-0.050996	0.709013
05857	1.200483	-2.288472	9.486637	-0.155606	-0.336443	0.012644	-0.694802	0.108695	-0.050977	0.709110
05858	1.024857	-2.360040	9.630431	-0.195040	-0.149558	0.152498	-0.694711	0.108509	-0.050979	0.709227
05859	0.885782	-2.361969	9.734192	-0.176145	-0.004332	0.241513	-0.694641	0.108297	-0.050913	0.709333
05860	0.908076	-2.306400	9.846131	-0.102298	-0.020482	0.340120	-0.694535	0.108050	-0.050806	0.709482
05861	1.016983	-2.160333	9.827803	0.029339	-0.136856	0.300048	-0.694409	0.107744	-0.050711	0.709659
05862	1.192415	-2.052096	9.696431	0.097553	-0.328363	0.164105	-0.694268	0.107376	-0.050587	0.709861
05863	1.201870	-1.886110	9.598846	0.230427	-0.353940	0.034209	-0.694101	0.106966	-0.050451	0.710096
05864	1.254867	-1.831323	9.519815	0.258384	-0.417837	-0.049801	-0.693888	0.106603	-0.050331	0.710368
05865	1.254673	-1.787758	9.503494	0.290756	-0.423577	-0.074992	-0.693650	0.106256	-0.050297	0.710654
05866	1.137432	-1.970100	9.570695	0.123169	-0.298999	0.019335	-0.693357	0.105926	-0.050281	0.710990
05867	0.909969	-2.096806	9.635370	0.011796	-0.066273	0.089861	-0.693054	0.105636	-0.050283	0.711329
05868	0.610499	-2.249392	9.633805	-0.136849	0.234935	0.095327	-0.692739	0.105417	-0.050248	0.711670
05869	0.554013	-2.246071	9.670043	-0.128657	0.293377	0.125063	-0.692412	0.105251	-0.050150	0.712020
05870	0.797822	-2.188471	9.640423	-0.087498	0.046278	0.104666	-0.692088	0.105051	-0.050028	0.712374
05871	0.923277	-1.903789	9.576498	0.169491	-0.095128	-0.007159	-0.691788	0.104785	-0.049962	0.712708
05872	0.923702	-1.805348	9.486289	0.241699	-0.108103	-0.115673	-0.691484	0.104557	-0.049915	0.713040
05873	0.882857	-1.747742	9.353461	0.266844	-0.080935	-0.260540	-0.691182	0.104428	-0.049848	0.713357
05874	0.769361	-1.820472	9.273243	0.178769	0.028822	-0.332905	-0.690896	0.104355	-0.049808	0.713647
05875	0.737499	-1.992000	9.245203	0.004435	0.065713	-0.326834	-0.690604	0.104311	-0.049777	0.713939
05876	0.749985	-2.133472	9.286996	-0.126635	0.062892	-0.255361	-0.690358	0.104240	-0.049737	0.714189
05877	0.864548	-2.122944	9.468977	-0.082063	-0.037665	-0.070628	-0.690175	0.104146	-0.049736	0.714380
05878	0.893596	-2.052437	9.616641	0.016475	-0.058919	0.060865	-0.690033	0.104085	-0.049779	0.714523
05879	0.804707	-2.086241	9.673810	-0.001683	0.034661	0.116127	-0.689912	0.104107	-0.049866	0.714630
05880	0.677167	-2.067498	9.596886	0.005156	0.154705	0.026488	-0.689826	0.104168	-0.049941	0.714700
05881	0.564280	-1.957765	9.520287	0.101059	0.256462	-0.080723	-0.689784	0.104251	-0.050035	0.714721
05882	0.428557	-1.900579	9.333090	0.123075	0.374669	-0.286571	-0.689780	0.104348	-0.050137	0.714704
05883	0.319945	-1.894889	9.187753	0.103039	0.470947	-0.438501	-0.689789	0.104420	-0.050259	0.714676
05884	0.406550	-1.921127	9.203343	0.081454	0.386043	-0.410461	-0.689814	0.104502	-0.050423	0.714628
05885	0.501402	-1.987232	9.328885	0.044627	0.302931	-0.266231	-0.689869	0.104596	-0.050572	0.714551
05886	0.584105	-1.967649	9.486250	0.099072	0.230880	-0.110181	-0.689972	0.104722	-0.050739	0.714422
05887	0.517177	-2.084318	9.574782	0.010304	0.308483	-0.004883	-0.690096	0.104890	-0.050918	0.714264
05888	0.517501	-2.099550	9.601206	0.006504	0.309670	0.024138	-0.690250	0.105060	-0.051170	0.714072
05889	0.483902	-2.221435	9.497962	-0.128085	0.338799	-0.053127	-0.690451	0.105256	-0.051391	0.713833
05890	0.585308	-2.216373	9.586643	-0.100287	0.243051	0.040713	-0.690661	0.105453	-0.051638	0.713583
05891	0.750498	-2.145917	9.631884	-0.019698	0.077194	0.083527	-0.690884	0.105584	-0.051871	0.713330
05892	1.018590	-2.017216	9.722118	0.124869	-0.191789	0.165984	-0.691058	0.105598	-0.052217	0.713135
05893	1.145508	-1.969224	9.762595	0.183021	-0.322993	0.205320	-0.691178	0.105558	-0.052618	0.712995
05894	1.224510	-1.931020	9.678201	0.205458	-0.415611	0.121138	-0.691266	0.105558	-0.052987	0.712883
05895	1.229597	-2.011967	9.618090	0.118195	-0.426544	0.080323	-0.691340	0.105609	-0.053259	0.712783
05896	1.144019	-2.022832	9.683662	0.128268	-0.338737	0.139334	-0.691411	0.105689	-0.053479	0.712685
05897	1.019288	-2.083024	9.733807	0.087236	-0.210594	0.190961	-0.691487	0.105758	-0.053672	0.712587
05898	0.890783	-2.179981	9.801837	0.013900	-0.076101	0.267781	-0.691528	0.105793	-0.053875	0.712527
05899	0.746967	-2.310632	9.795831	-0.108781	0.069011	0.278828	-0.691564	0.105806	-0.054064	0.712475
05900	0.619337	-2.302373	9.745696	-0.106234	0.189411	0.218062	-0.691620	0.105820	-0.054266	0.712404
05901	0.526068	-2.271423	9.701402	-0.081116	0.275234	0.160826	-0.691687	0.105836	-0.054438	0.712323
05902	0.546274	-2.248174	9.614985	-0.075481	0.245774	0.073390	-0.691769	0.105865	-0.054572	0.712229
05903	0.516964	-2.140827	9.500362	0.006326	0.261110	-0.063890	-0.691860	0.105891	-0.054662	0.712129
05904	0.606865	-2.129043	9.498686	0.017372	0.169876	-0.060919	-0.691935	0.105923	-0.054750	0.712045
05905	0.721961	-2.158958	9.511209	-0.009640	0.056160	-0.033005	-0.691997	0.105948	-0.054827	0.711975
05906	0.817140	-2.177126	9.592018	-0.009963	-0.033602	0.057124	-0.692038	0.105916	-0.054933	0.711932
05907	0.875254	-2.207667	9.639566	-0.029123	-0.089396	0.114662	-0.692040	0.105864	-0.055079	0.711927
05908	0.810166	-2.237342	9.664648	-0.049751	-0.024987	0.140423	-0.692032	0.105786	-0.055285	0.711930
05909	0.801731	-2.276499	9.682390	-0.081979	-0.018068	0.165632	-0.692024	0.105704	-0.055512	0.711933
05910	0.723494	-2.220764	9.739887	-0.011466	0.057767	0.203158	-0.692011	0.105618	-0.055734	0.711940
05911	0.678797	-2.214716	9.651507	-0.022687	0.091426	0.112455	-0.692002	0.105521	-0.055948	0.711947
05912	0.673919	-2.158459	9.578949	0.017265	0.084893	0.029155	-0.691994	0.105401	-0.056130	0.711958
05913	0.694619	-2.143240	9.520721	0.019161	0.055836	-0.029200	-0.691969	0.105283	-0.056260	0.711989
05914	0.701680	-2.089532	9.540236	0.076149	0.045064	-0.021530	-0.691927	0.105197	-0.056407	0.712032
05915	0.670944	-2.096138	9.571266	0.078118	0.074961	0.007770	-0.691861	0.105117	-0.056569	0.712095
05916	0.693618	-2.206753	9.685522	-0.003601	0.060919	0.145047	-0.691772	0.105019	-0.056750	0.712181
05917	0.708425	-2.334455	9.762673	-0.109988	0.052037	0.249446	-0.691670	0.104898	-0.056971	0.712280
05918	0.701472	-2.325409	9.735360	-0.106130	0.052232	0.220399	-0.691558	0.104751	-0.057181	0.712394
05919	0.653382	-2.298208	9.592162	-0.109780	0.084795	0.071593	-0.691464	0.104615	-0.057396	0.712488
05920	0.560678	-2.218085	9.502655	-0.048846	0.163942	-0.039999	-0.691389	0.104495	-0.057586	0.712563
05921	0.520957	-2.173945	9.396425	-0.027867	0.191283	-0.155935	-0.691344	0.104418	-0.057733	0.712606
05922	0.621366	-2.117022	9.442711	0.036643	0.089197	-0.116122	-0.691311	0.104333	-0.057878	0.712639
05923	0.687090	-2.082905	9.482791	0.078404	0.021516	-0.079892	-0.691267	0.104229	-0.058075	0.712681
05924	0.784491	-2.073736	9.574373	0.106875	-0.073807	0.014191	-0.691203	0.104127	-0.058265	0.712742
05925	0.898304	-2.112945	9.615772	0.076521	-0.187052	0.071325	-0.691119	0.104020	-0.058460	0.712823
05926	0.925864	-2.139002	9.667375	0.063291	-0.214038	0.129187	-0.691006	0.103930	-0.058663	0.712929
05927	0.892651	-2.193530	9.743347	0.029127	-0.177408	0.212725	-0.690863	0.103849	-0.058834	0.713066
05928	0.794361	-2.245692	9.761363	-0.014542	-0.078628	0.234798	-0.690671	0.103799	-0.058949	0.713249
05929	0.714293	-2.288161	9.656534	-0.077169	-0.005071	0.136612	-0.690441	0.103760	-0.059014	0.713472
05930	0.669392	-2.307479	9.558125	-0.116991	0.034103	0.042030	-0.690218	0.103751	-0.059027	0.713688
05931	0.623859	-2.196695	9.539382	-0.012538	0.074255	-0.004078	-0.689981	0.103718	-0.059026	0.713922
05932	0.612869	-2.130835	9.627061	0.071002	0.087833	0.065754	-0.689743	0.103644	-0.059072	0.714159
05933	0.678043	-2.142186	9.712779	0.076775	0.026956	0.156273	-0.689479	0.103501	-0.059173	0.714426
05934	0.857020	-2.169934	9.785610	0.060001	-0.148847	0.245916	-0.689169	0.103294	-0.059293	0.714745
05935	1.023578	-2.183054	9.739431	0.030038	-0.321176	0.215568	-0.688818	0.103038	-0.059417	0.715110
05936	1.073114	-2.168547	9.679166	0.026506	-0.379008	0.157071	-0.688404	0.102780	-0.059543	0.715535
