// General information: 
//  MT Manager version: 2021.0.0 
//  XDA version: 2021.0.0 build 5908 rev 109668 built on 2021-04-19
// Device information: 
//  DeviceId: 00B47AB0
//  ProductCode: MTW2-3A7G6
//  Firmware Version: 4.4.0
//  Hardware Version: 2.0.0
// Device settings: 
//  Filter Profile: human(46.1)
//  Option Flags: Orientation Smoother Disabled, Position/Velocity Smoother Disabled, Continuous Zero Rotation Update Disabled, AHS Disabled, ICC Disabled
// Coordinate system: ENU
PacketCounter	Acc_X	Acc_Y	Acc_Z	FreeAcc_E	FreeAcc_N	FreeAcc_U	Quat_q0	Quat_q1	Quat_q2	Quat_q3
04744	-0.890613	-9.826235	-0.073240	-0.131872	0.222137	0.050716	-0.042510	-0.030716	-0.700815	0.711413
04745	-0.959602	-9.854914	-0.604639	-0.070688	0.756604	0.078131	-0.042537	-0.030670	-0.700625	0.711600
04746	-1.013500	-9.756599	-0.939082	-0.009742	1.100096	-0.020346	-0.042807	-0.030346	-0.700107	0.712108
04747	-0.941834	-9.459095	0.171357	-0.039755	-0.001236	-0.305359	-0.043284	-0.029811	-0.699586	0.712613
04748	-0.681551	-9.373514	1.371730	-0.275898	-1.199680	-0.394962	-0.043558	-0.029475	-0.699660	0.712537
04749	-0.825349	-9.849491	1.067487	-0.184669	-0.892715	0.086916	-0.043316	-0.029712	-0.700114	0.712097
04750	-1.010415	-10.118863	0.568770	-0.034580	-0.397226	0.364584	-0.042975	-0.030100	-0.700339	0.711880
04751	-0.980621	-9.954037	-0.056618	-0.054040	0.222832	0.187068	-0.042721	-0.030399	-0.700244	0.711975
04752	-1.021953	-9.826213	-0.748137	-0.006280	0.918211	0.052169	-0.042516	-0.030647	-0.699918	0.712297
04753	-1.044942	-9.620376	-0.690427	0.038260	0.867307	-0.150051	-0.042507	-0.030669	-0.699495	0.712713
04754	-0.918748	-9.470905	-0.170261	-0.067681	0.352564	-0.302575	-0.042651	-0.030512	-0.699238	0.712963
04755	-0.830252	-9.479165	0.436243	-0.151285	-0.251881	-0.291770	-0.042814	-0.030356	-0.699299	0.712900
04756	-0.839063	-9.696474	0.630154	-0.162886	-0.446412	-0.071183	-0.042886	-0.030244	-0.699599	0.712606
04757	-0.857535	-9.890022	0.423916	-0.165686	-0.243809	0.119116	-0.042817	-0.030270	-0.699821	0.712391
04758	-0.948677	-9.908666	0.240699	-0.078383	-0.062186	0.143697	-0.042726	-0.030357	-0.699807	0.712407
04759	-0.917724	-9.816613	0.236839	-0.099488	-0.058093	0.048901	-0.042622	-0.030435	-0.699658	0.712555
04760	-0.917806	-9.858304	0.169533	-0.104062	0.014374	0.089143	-0.042525	-0.030508	-0.699485	0.712729
04761	-0.896666	-9.788525	0.061667	-0.118317	0.125794	0.015497	-0.042424	-0.030566	-0.699286	0.712927
04762	-0.888553	-9.722134	-0.020252	-0.119813	0.211500	-0.053039	-0.042336	-0.030630	-0.699113	0.713100
04763	-0.919731	-9.665602	-0.025514	-0.082595	0.219656	-0.106228	-0.042279	-0.030657	-0.699011	0.713201
04764	-0.954658	-9.652736	-0.007789	-0.045944	0.203219	-0.115093	-0.042221	-0.030673	-0.699028	0.713188
04765	-0.961616	-9.740124	0.042068	-0.047033	0.153893	-0.026442	-0.042205	-0.030651	-0.699099	0.713120
04766	-0.951037	-9.738765	0.111445	-0.056288	0.082865	-0.027474	-0.042208	-0.030595	-0.699148	0.713074
04767	-0.927583	-9.755059	0.119908	-0.080485	0.073702	-0.013501	-0.042239	-0.030518	-0.699158	0.713065
04768	-0.917361	-9.774601	0.155198	-0.091907	0.038826	0.005587	-0.042248	-0.030479	-0.699146	0.713078
04769	-0.961799	-9.742273	0.136991	-0.043981	0.057333	-0.022361	-0.042219	-0.030467	-0.699123	0.713103
04770	-0.921561	-9.711589	0.095513	-0.080697	0.098773	-0.057838	-0.042169	-0.030480	-0.699081	0.713147
04771	-0.907954	-9.708353	0.070893	-0.093736	0.124638	-0.062959	-0.042151	-0.030489	-0.699013	0.713214
04772	-0.930003	-9.692204	0.063145	-0.069955	0.134024	-0.076935	-0.042136	-0.030468	-0.698958	0.713269
04773	-0.938640	-9.651870	0.064737	-0.056765	0.132972	-0.116146	-0.042149	-0.030432	-0.698921	0.713307
04774	-0.906037	-9.687548	0.109803	-0.092219	0.088863	-0.083086	-0.042192	-0.030362	-0.698924	0.713304
04775	-0.931541	-9.694155	0.161122	-0.066600	0.037311	-0.072844	-0.042206	-0.030309	-0.698969	0.713262
04776	-0.925769	-9.799191	0.150047	-0.082860	0.050053	0.030805	-0.042125	-0.030372	-0.698951	0.713282
04777	-0.906033	-9.796226	0.293027	-0.100921	-0.092280	0.028761	-0.042003	-0.030494	-0.698896	0.713337
04778	-0.921263	-9.755576	0.126366	-0.082812	0.074958	-0.013530	-0.041934	-0.030540	-0.698857	0.713378
04779	-0.891184	-9.768293	-0.057547	-0.114898	0.259777	-0.007772	-0.041900	-0.030531	-0.698820	0.713416
04780	-0.864487	-9.782808	-0.142968	-0.143154	0.347699	0.002084	-0.041893	-0.030511	-0.698682	0.713553
04781	-0.934973	-9.736127	-0.069523	-0.067249	0.278467	-0.035719	-0.041903	-0.030463	-0.698493	0.713739
04782	-0.906831	-9.603829	0.097416	-0.080052	0.113296	-0.166646	-0.041930	-0.030401	-0.698340	0.713889
04783	-0.935759	-9.611948	0.248901	-0.050449	-0.035250	-0.152286	-0.041938	-0.030357	-0.698313	0.713918
04784	-0.962177	-9.702447	0.158493	-0.033758	0.057933	-0.061590	-0.041947	-0.030325	-0.698303	0.713929
04785	-0.935560	-9.696015	0.107635	-0.059704	0.109591	-0.071846	-0.041964	-0.030300	-0.698222	0.714007
04786	-0.931178	-9.631408	0.120231	-0.057286	0.098280	-0.136292	-0.041964	-0.030286	-0.698108	0.714120
04787	-0.911998	-9.670115	0.193461	-0.079709	0.028255	-0.098104	-0.041932	-0.030329	-0.698031	0.714195
04788	-0.880356	-9.747629	0.168446	-0.119580	0.056440	-0.024829	-0.041874	-0.030406	-0.697976	0.714249
04789	-0.858285	-9.805799	0.107917	-0.148216	0.119567	0.029351	-0.041795	-0.030512	-0.697909	0.714314
04790	-0.893926	-9.771780	0.162503	-0.109309	0.067018	0.000403	-0.041706	-0.030623	-0.697794	0.714427
04791	-0.907135	-9.774912	0.191454	-0.096554	0.041277	0.005532	-0.041630	-0.030716	-0.697679	0.714540
04792	-0.920250	-9.778042	0.220191	-0.083903	0.015641	0.010661	-0.041557	-0.030795	-0.697580	0.714637
04793	-0.956056	-9.765017	0.239421	-0.047110	-0.000844	0.001828	-0.041511	-0.030876	-0.697469	0.714745
04794	-0.988371	-9.750594	0.161850	-0.014434	0.079772	-0.011127	-0.041458	-0.030948	-0.697348	0.714863
04795	-0.948254	-9.677803	0.193719	-0.046604	0.048741	-0.086844	-0.041410	-0.030967	-0.697248	0.714963
04796	-0.934610	-9.653538	0.205388	-0.057528	0.038536	-0.112085	-0.041361	-0.031021	-0.697190	0.715020
04797	-0.898669	-9.666508	0.189800	-0.094624	0.055140	-0.103258	-0.041310	-0.031061	-0.697167	0.715043
04798	-0.872029	-9.660235	0.138006	-0.120704	0.106880	-0.113531	-0.041253	-0.031110	-0.697166	0.715046
04799	-0.907213	-9.626205	0.189680	-0.081659	0.054245	-0.142464	-0.041211	-0.031126	-0.697193	0.715021
04800	-0.933155	-9.674800	0.169597	-0.060577	0.075140	-0.091988	-0.041183	-0.031122	-0.697212	0.715004
04801	-0.945846	-9.678012	0.195032	-0.047807	0.049415	-0.086853	-0.041164	-0.031132	-0.697224	0.714993
04802	-1.020822	-9.716793	0.217686	0.023141	0.028000	-0.040062	-0.041133	-0.031133	-0.697238	0.714981
04803	-1.007072	-9.713700	0.191486	0.010075	0.053860	-0.045200	-0.041109	-0.031132	-0.697232	0.714988
04804	-0.984164	-9.750956	0.165644	-0.016472	0.080922	-0.011140	-0.041071	-0.031160	-0.697204	0.715016
04805	-0.942336	-9.784530	0.282040	-0.060623	-0.034532	0.020914	-0.041018	-0.031186	-0.697198	0.715025
04806	-0.902316	-9.775097	0.204390	-0.099643	0.042986	0.005494	-0.040963	-0.031227	-0.697175	0.715048
04807	-0.928196	-9.823678	0.185658	-0.078477	0.063795	0.055972	-0.040891	-0.031250	-0.697142	0.715084
04808	-0.891934	-9.836652	0.170492	-0.115694	0.080476	0.064786	-0.040848	-0.031297	-0.697070	0.715154
04809	-0.958839	-9.767264	0.179292	-0.041476	0.072179	0.002812	-0.040798	-0.031271	-0.697011	0.715216
04810	-0.953974	-9.723817	0.154776	-0.041282	0.097014	-0.041530	-0.040768	-0.031265	-0.696970	0.715258
04811	-0.939856	-9.678490	0.200211	-0.049818	0.050541	-0.086869	-0.040777	-0.031200	-0.696997	0.715233
04812	-0.929747	-9.718961	0.198886	-0.063449	0.051811	-0.047674	-0.040800	-0.031148	-0.697052	0.715181
04813	-0.915759	-9.715913	0.171298	-0.076531	0.077650	-0.052819	-0.040821	-0.031072	-0.697114	0.715123
04814	-0.869672	-9.727100	0.224319	-0.122571	0.023107	-0.045008	-0.040816	-0.031027	-0.697170	0.715070
04815	-0.878281	-9.750164	0.116121	-0.116186	0.130537	-0.023917	-0.040781	-0.031020	-0.697213	0.715031
04816	-0.841849	-9.763154	0.098951	-0.153412	0.147200	-0.015113	-0.040736	-0.031040	-0.697214	0.715031
04817	-0.854411	-9.766375	0.125277	-0.140627	0.121480	-0.009970	-0.040683	-0.031055	-0.697178	0.715069
04818	-0.853670	-9.745314	0.161887	-0.138596	0.085476	-0.030070	-0.040633	-0.031068	-0.697136	0.715112
04819	-0.901709	-9.714529	0.240289	-0.086545	0.007102	-0.053828	-0.040598	-0.031035	-0.697146	0.715106
04820	-0.923461	-9.698532	0.230333	-0.062765	0.016539	-0.067783	-0.040587	-0.031024	-0.697162	0.715091
04821	-0.998295	-9.737435	0.252587	0.008291	-0.004897	-0.020959	-0.040577	-0.031000	-0.697194	0.715061
04822	-1.007089	-9.718254	0.216435	0.019129	0.030321	-0.040060	-0.040584	-0.030976	-0.697206	0.715051
04823	-0.970633	-9.731232	0.199758	-0.017995	0.046880	-0.031257	-0.040583	-0.030925	-0.697207	0.715052
04824	-0.947368	-9.747376	0.209411	-0.042280	0.037761	-0.017306	-0.040599	-0.030888	-0.697191	0.715068
04825	-0.911101	-9.760322	0.192984	-0.079406	0.054314	-0.008506	-0.040600	-0.030866	-0.697200	0.715060
04826	-0.874848	-9.794371	0.140799	-0.118946	0.107123	0.020382	-0.040579	-0.030869	-0.697191	0.715070
04827	-0.870815	-9.793057	0.044174	-0.123274	0.204169	0.016217	-0.040552	-0.030919	-0.697157	0.715102
04828	-0.893337	-9.734758	0.107151	-0.094883	0.141291	-0.037920	-0.040491	-0.030979	-0.697091	0.715168
04829	-0.919702	-9.656638	0.302523	-0.059881	-0.054832	-0.107976	-0.040384	-0.031092	-0.697078	0.715182
04830	-0.910527	-9.654802	0.372313	-0.068890	-0.125891	-0.108962	-0.040230	-0.031274	-0.697171	0.715092
04831	-0.973916	-9.753082	-0.005386	-0.017364	0.252158	-0.014358	-0.040142	-0.031362	-0.697237	0.715028
04832	-1.047357	-9.789152	-0.608811	0.050090	0.858239	0.013604	-0.040263	-0.031190	-0.697069	0.715193
04833	-1.035025	-9.701537	-0.748282	0.046577	1.004616	-0.079262	-0.040591	-0.030764	-0.696585	0.715664
04834	-0.872653	-9.391769	0.571932	-0.076086	-0.313899	-0.368661	-0.041083	-0.030172	-0.696326	0.715913
04835	-0.608478	-9.524855	1.348562	-0.345251	-1.090010	-0.241669	-0.041181	-0.029964	-0.696676	0.715576
04836	-0.819360	-10.084248	0.898227	-0.194008	-0.634188	0.322912	-0.040930	-0.030210	-0.697118	0.715149
04837	-0.915707	-10.147812	0.470465	-0.107491	-0.211761	0.384447	-0.040699	-0.030448	-0.697196	0.715076
04838	-0.900122	-9.822972	-0.010145	-0.093320	0.261268	0.047542	-0.040521	-0.030646	-0.697052	0.715218
04839	-1.002715	-9.696022	-0.538367	0.018895	0.791640	-0.082268	-0.040370	-0.030803	-0.696831	0.715435
04840	-1.102168	-9.570701	-0.534552	0.130459	0.791733	-0.197337	-0.040407	-0.030769	-0.696575	0.715684
04841	-1.016049	-9.445770	-0.074003	0.059472	0.332150	-0.318134	-0.040585	-0.030584	-0.696485	0.715769
04842	-0.967468	-9.520922	0.403787	0.006023	-0.144347	-0.235312	-0.040746	-0.030427	-0.696632	0.715624
04843	-0.892123	-9.738329	0.574770	-0.089633	-0.316285	-0.022222	-0.040793	-0.030371	-0.696940	0.715324
04844	-0.886299	-9.949323	0.379970	-0.117797	-0.122699	0.181811	-0.040774	-0.030403	-0.697105	0.715163
04845	-0.852179	-9.855942	0.274958	-0.143006	-0.021808	0.082790	-0.040716	-0.030463	-0.697039	0.715228
04846	-0.803319	-9.802172	0.342707	-0.186172	-0.087933	0.026162	-0.040652	-0.030557	-0.696860	0.715402
04847	-0.786441	-9.734175	0.331198	-0.196499	-0.073630	-0.043434	-0.040527	-0.030691	-0.696688	0.715571
04848	-0.846194	-9.683534	0.112783	-0.133218	0.148410	-0.093643	-0.040391	-0.030829	-0.696520	0.715736
04849	-0.959006	-9.603301	0.068301	-0.013240	0.195008	-0.163358	-0.040290	-0.030955	-0.696419	0.715835
04850	-1.026718	-9.555183	0.039817	0.058582	0.223097	-0.205188	-0.040235	-0.031019	-0.696483	0.715773
04851	-1.057101	-9.583849	0.149037	0.086308	0.110842	-0.170587	-0.040254	-0.031012	-0.696714	0.715547
04852	-1.023626	-9.704386	0.309036	0.041429	-0.053901	-0.049809	-0.040329	-0.030941	-0.697060	0.715209
04853	-0.995094	-9.783608	0.370160	0.005778	-0.122862	0.027591	-0.040428	-0.030799	-0.697426	0.714852
04854	-0.896227	-9.782212	0.311866	-0.092072	-0.074484	0.014729	-0.040554	-0.030638	-0.697743	0.714543
04855	-0.814543	-9.806470	0.342279	-0.174905	-0.112782	0.031304	-0.040654	-0.030498	-0.698003	0.714289
04856	-0.728921	-9.829126	0.276644	-0.262152	-0.054009	0.043677	-0.040682	-0.030433	-0.698237	0.714061
04857	-0.741767	-9.853583	0.260873	-0.251695	-0.043542	0.068918	-0.040676	-0.030458	-0.698431	0.713871
04858	-0.738026	-9.872949	0.123116	-0.258651	0.089755	0.084787	-0.040641	-0.030542	-0.698585	0.713719
04859	-0.766914	-9.793789	0.049207	-0.223311	0.158840	0.007383	-0.040610	-0.030673	-0.698665	0.713636
04860	-0.884659	-9.756891	0.024996	-0.103883	0.180944	-0.017962	-0.040623	-0.030745	-0.698743	0.713556
04861	-0.921346	-9.723097	0.074783	-0.064645	0.128413	-0.046807	-0.040654	-0.030774	-0.698828	0.713471
04862	-1.001409	-9.763898	0.191677	0.010648	0.010266	0.004290	-0.040661	-0.030825	-0.698939	0.713359
04863	-1.027283	-9.793701	0.469273	0.034142	-0.270181	0.042156	-0.040607	-0.030926	-0.699085	0.713215
04864	-1.063268	-9.802066	0.444249	0.068524	-0.250268	0.053470	-0.040579	-0.030963	-0.699336	0.712969
04865	-0.960671	-9.840124	0.219099	-0.038392	-0.032733	0.076518	-0.040620	-0.030909	-0.699629	0.712681
04866	-0.955649	-9.900823	0.007798	-0.050199	0.172906	0.132522	-0.040695	-0.030786	-0.699828	0.712487
04867	-0.937622	-9.853778	-0.047233	-0.062929	0.223357	0.082991	-0.040797	-0.030631	-0.699898	0.712419
04868	-0.932960	-9.768471	-0.002788	-0.057967	0.175831	-0.001511	-0.040873	-0.030492	-0.699959	0.712360
04869	-0.968100	-9.693400	0.118633	-0.013899	0.050985	-0.070485	-0.040945	-0.030378	-0.700085	0.712237
04870	-0.940877	-9.645104	0.134569	-0.035344	0.030293	-0.120978	-0.041018	-0.030250	-0.700248	0.712078
04871	-0.949118	-9.667250	0.023550	-0.029293	0.137759	-0.099950	-0.041114	-0.030100	-0.700385	0.711944
04872	-0.987575	-9.677708	0.097974	0.009451	0.060705	-0.084422	-0.041200	-0.029916	-0.700498	0.711836
04873	-0.986176	-9.677882	0.094756	0.009294	0.060771	-0.084422	-0.041296	-0.029744	-0.700629	0.711709
04874	-0.979084	-9.741481	0.151556	-0.002410	0.001221	-0.020955	-0.041399	-0.029531	-0.700785	0.711557
04875	-0.967961	-9.782061	0.146287	-0.015999	0.002378	0.018224	-0.041459	-0.029369	-0.700976	0.711373
04876	-0.939837	-9.754607	0.125495	-0.039851	0.017844	-0.012203	-0.041488	-0.029219	-0.701142	0.711214
04877	-0.902262	-9.767452	0.104981	-0.077035	0.034305	-0.003452	-0.041485	-0.029116	-0.701263	0.711099
04878	-0.896924	-9.744449	0.040976	-0.079291	0.095270	-0.027746	-0.041464	-0.029045	-0.701348	0.711019
04879	-0.882440	-9.741047	0.013514	-0.092464	0.121063	-0.032929	-0.041433	-0.029010	-0.701372	0.710999
04880	-0.855005	-9.754753	-0.074286	-0.121177	0.208853	-0.023231	-0.041410	-0.028981	-0.701347	0.711026
04881	-0.840934	-9.751314	-0.098868	-0.134357	0.234643	-0.028416	-0.041401	-0.028945	-0.701269	0.711105
04882	-0.826876	-9.747898	-0.121891	-0.147640	0.260529	-0.033606	-0.041397	-0.028899	-0.701131	0.711243
04883	-0.858175	-9.670867	-0.091059	-0.107915	0.232672	-0.106780	-0.041418	-0.028837	-0.701001	0.711372
04884	-0.870623	-9.633050	0.010037	-0.090292	0.134761	-0.141730	-0.041418	-0.028788	-0.700877	0.711496
04885	-0.882866	-9.636630	0.038515	-0.077433	0.109092	-0.136548	-0.041413	-0.028734	-0.700809	0.711565
04886	-0.885584	-9.701258	0.029869	-0.080558	0.120781	-0.072129	-0.041410	-0.028688	-0.700732	0.711644
04887	-0.929840	-9.689877	-0.022102	-0.035122	0.175706	-0.079924	-0.041400	-0.028639	-0.700617	0.711759
04888	-0.951493	-9.673884	-0.027858	-0.011366	0.185214	-0.093854	-0.041400	-0.028587	-0.700466	0.711911
04889	-0.911119	-9.622041	-0.029766	-0.045702	0.190116	-0.149538	-0.041392	-0.028542	-0.700306	0.712070
04890	-0.923262	-9.646387	-0.036008	-0.035392	0.200716	-0.124294	-0.041406	-0.028465	-0.700192	0.712184
04891	-0.935392	-9.691528	-0.078632	-0.027437	0.247385	-0.078988	-0.041413	-0.028411	-0.700074	0.712302
04892	-0.879870	-9.722493	0.014088	-0.084281	0.157591	-0.052088	-0.041462	-0.028318	-0.699979	0.712396
04893	-0.869695	-9.721262	0.087224	-0.092981	0.086398	-0.053035	-0.041519	-0.028226	-0.699926	0.712449
04894	-0.876208	-9.767237	0.210683	-0.089166	-0.035048	-0.004432	-0.041567	-0.028120	-0.699907	0.712468
04895	-0.946738	-9.762901	0.208391	-0.017686	-0.031551	-0.001843	-0.041613	-0.028013	-0.699901	0.712476
04896	-0.906316	-9.752645	0.131205	-0.057031	0.045773	-0.017415	-0.041661	-0.027919	-0.699859	0.712518
04897	-0.927865	-9.736672	0.123256	-0.033174	0.055184	-0.031340	-0.041730	-0.027768	-0.699800	0.712578
04898	-0.922947	-9.672191	0.135533	-0.030543	0.043803	-0.095762	-0.041788	-0.027633	-0.699724	0.712655
04899	-0.882584	-9.641113	0.095508	-0.067331	0.084852	-0.131396	-0.041878	-0.027511	-0.699652	0.712725
04900	-0.889087	-9.728660	0.147921	-0.068428	0.035750	-0.042671	-0.041956	-0.027397	-0.699613	0.712763
04901	-0.888381	-9.707877	0.184335	-0.066112	-0.000357	-0.062728	-0.042030	-0.027290	-0.699607	0.712768
04902	-0.887758	-9.707934	0.184343	-0.066366	-0.000201	-0.062730	-0.042112	-0.027183	-0.699611	0.712763
04903	-0.864508	-9.703205	0.228807	-0.088058	-0.045675	-0.068865	-0.042203	-0.027069	-0.699655	0.712719
04904	-0.935645	-9.740568	0.153336	-0.021642	0.030291	-0.026155	-0.042302	-0.026954	-0.699709	0.712665
04905	-0.938401	-9.784434	0.176975	-0.022216	0.005731	0.018210	-0.042389	-0.026799	-0.699789	0.712588
04906	-0.924329	-9.781099	0.149573	-0.035515	0.031604	0.013013	-0.042529	-0.026618	-0.699817	0.712558
04907	-0.972531	-9.813676	0.120170	0.009452	0.061946	0.049592	-0.042677	-0.026436	-0.699826	0.712547
04908	-0.932519	-9.782554	0.078509	-0.027452	0.103074	0.013947	-0.042813	-0.026259	-0.699787	0.712584
04909	-0.928313	-9.759666	0.018861	-0.029690	0.163936	-0.010369	-0.042942	-0.026086	-0.699713	0.712655
04910	-0.914463	-9.735454	0.030794	-0.040507	0.153635	-0.035622	-0.043055	-0.025942	-0.699636	0.712729
04911	-0.890953	-9.730713	0.077868	-0.062190	0.108149	-0.041757	-0.043156	-0.025800	-0.699568	0.712795
04912	-0.854574	-9.701654	0.134092	-0.094517	0.052298	-0.073144	-0.043242	-0.025725	-0.699535	0.712824
04913	-0.861020	-9.747534	0.256152	-0.090505	-0.069233	-0.024511	-0.043203	-0.025746	-0.699598	0.712765
04914	-0.822020	-9.778887	0.104179	-0.134920	0.080389	-0.000016	-0.043148	-0.025829	-0.699693	0.712672
04915	-0.884198	-9.830648	-0.297992	-0.084760	0.483361	0.049940	-0.043234	-0.025753	-0.699672	0.712690
04916	-0.936111	-9.793121	-0.842693	-0.038515	1.032642	0.006875	-0.043528	-0.025406	-0.699386	0.712965
04917	-0.912047	-9.643103	-0.536483	-0.042657	0.733945	-0.139603	-0.044018	-0.024838	-0.698923	0.713409
04918	-0.681838	-9.412894	0.703042	-0.225343	-0.506077	-0.365209	-0.044552	-0.024213	-0.698813	0.713505
04919	-0.516980	-9.699224	1.105682	-0.407493	-0.909660	-0.087914	-0.044601	-0.024111	-0.699150	0.713175
04920	-0.820505	-10.061673	0.472096	-0.153446	-0.270018	0.288645	-0.044400	-0.024344	-0.699330	0.713003
04921	-0.827500	-9.889501	0.227606	-0.135070	-0.028964	0.113022	-0.044316	-0.024458	-0.699163	0.713169
04922	-0.772598	-9.593321	-0.228297	-0.170336	0.425016	-0.196494	-0.044265	-0.024552	-0.698967	0.713360
04923	-0.871747	-9.633434	-0.606955	-0.083284	0.811692	-0.155275	-0.044226	-0.024619	-0.698761	0.713562
04924	-0.903731	-9.493755	-0.467616	-0.035981	0.675457	-0.288547	-0.044406	-0.024504	-0.698590	0.713723
04925	-0.798347	-9.495721	0.014811	-0.132185	0.192994	-0.286325	-0.044635	-0.024271	-0.698615	0.713691
04926	-0.748305	-9.659681	0.442586	-0.189239	-0.235929	-0.118678	-0.044801	-0.024098	-0.698860	0.713447
04927	-0.772309	-9.899006	0.358916	-0.190211	-0.154558	0.119861	-0.044889	-0.024025	-0.699155	0.713155
04928	-0.812561	-10.034644	0.216564	-0.166471	-0.014467	0.255744	-0.044919	-0.024003	-0.699267	0.713044
04929	-0.831632	-9.954055	0.217092	-0.139671	-0.016584	0.177416	-0.044956	-0.023975	-0.699192	0.713117
04930	-0.801853	-9.840800	0.249533	-0.158042	-0.048940	0.062494	-0.044998	-0.023981	-0.699067	0.713236
04931	-0.788816	-9.816420	0.262129	-0.168728	-0.059361	0.037239	-0.044980	-0.024003	-0.698975	0.713327
04932	-0.805222	-9.733772	0.168629	-0.146693	0.035584	-0.045378	-0.044953	-0.024070	-0.698873	0.713426
04933	-0.857713	-9.659452	0.056065	-0.090025	0.150308	-0.116651	-0.044897	-0.024157	-0.698787	0.713511
04934	-0.890667	-9.623992	0.013352	-0.055338	0.194948	-0.149685	-0.044885	-0.024229	-0.698731	0.713564
04935	-0.913881	-9.607942	0.004678	-0.031486	0.204405	-0.163595	-0.044909	-0.024245	-0.698737	0.713556
04936	-0.917238	-9.630737	0.064982	-0.029604	0.143774	-0.139265	-0.044980	-0.024195	-0.698799	0.713492
04937	-0.900835	-9.692416	0.194524	-0.049480	0.012863	-0.076689	-0.045068	-0.024128	-0.698902	0.713388
04938	-0.891256	-9.732778	0.191272	-0.063223	0.014098	-0.037531	-0.045180	-0.024024	-0.698995	0.713293
04939	-0.858431	-9.747428	0.268564	-0.095756	-0.066516	-0.024542	-0.045274	-0.023953	-0.699112	0.713175
04940	-0.819800	-9.737196	0.187259	-0.135255	0.010706	-0.040190	-0.045379	-0.023874	-0.699217	0.713068
04941	-0.761589	-9.765825	0.177187	-0.196511	0.017637	-0.017596	-0.045432	-0.023854	-0.699275	0.713009
04942	-0.768725	-9.723435	0.079533	-0.188002	0.113662	-0.061062	-0.045465	-0.023872	-0.699291	0.712990
04943	-0.801896	-9.687896	0.034998	-0.153232	0.158212	-0.094093	-0.045539	-0.023862	-0.699277	0.713000
04944	-0.756918	-9.699040	0.089834	-0.198942	0.103370	-0.086326	-0.045664	-0.023819	-0.699230	0.713040
04945	-0.832001	-9.717573	0.149832	-0.125314	0.046265	-0.059326	-0.045714	-0.023777	-0.699221	0.713047
04946	-0.838240	-9.742496	0.308576	-0.118657	-0.111321	-0.030682	-0.045653	-0.023913	-0.699194	0.713072
04947	-0.900954	-9.757523	0.342225	-0.058105	-0.142734	-0.008895	-0.045597	-0.024051	-0.699175	0.713090
04948	-0.922480	-9.781035	0.164450	-0.044261	0.036137	0.012962	-0.045590	-0.024160	-0.699170	0.713091
04949	-0.907741	-9.775456	0.041859	-0.062270	0.158833	0.003431	-0.045650	-0.024181	-0.699120	0.713136
04950	-0.905217	-9.710753	0.053525	-0.059546	0.147418	-0.060984	-0.045739	-0.024204	-0.699059	0.713189
04951	-0.896281	-9.709242	0.125280	-0.068031	0.076204	-0.061895	-0.045817	-0.024210	-0.699057	0.713186
04952	-0.874760	-9.725173	0.134120	-0.092298	0.066942	-0.047997	-0.045903	-0.024247	-0.699073	0.713163
04953	-0.888957	-9.749371	0.123449	-0.081950	0.077494	-0.022744	-0.045969	-0.024232	-0.699116	0.713118
04954	-0.889856	-9.770170	0.087294	-0.084804	0.113823	-0.002716	-0.046083	-0.024186	-0.699091	0.713136
04955	-0.889938	-9.728388	0.160174	-0.079772	0.041537	-0.042780	-0.046194	-0.024132	-0.699016	0.713205
04956	-0.844347	-9.718700	0.251195	-0.122848	-0.049501	-0.055044	-0.046295	-0.024075	-0.699005	0.713211
04957	-0.870674	-9.725494	0.303048	-0.096798	-0.100798	-0.044596	-0.046363	-0.024067	-0.699030	0.713182
04958	-0.861971	-9.786648	0.265836	-0.113157	-0.063394	0.014587	-0.046391	-0.024084	-0.699057	0.713153
04959	-0.882369	-9.768539	0.159034	-0.094106	0.043042	-0.003635	-0.046403	-0.024122	-0.699058	0.713149
04960	-0.856840	-9.740795	0.142982	-0.117969	0.058371	-0.034120	-0.046408	-0.024184	-0.699024	0.713181
04961	-0.860609	-9.784485	0.169288	-0.118525	0.033825	0.010258	-0.046381	-0.024227	-0.698989	0.713215
04962	-0.828549	-9.840830	0.178538	-0.156299	0.025626	0.063305	-0.046333	-0.024314	-0.698967	0.713237
04963	-0.851982	-9.845591	0.134437	-0.135060	0.071287	0.069432	-0.046317	-0.024381	-0.698914	0.713288
04964	-0.861606	-9.805239	0.136484	-0.121810	0.070366	0.030275	-0.046295	-0.024398	-0.698848	0.713354
04965	-0.871160	-9.785784	0.103474	-0.111073	0.105532	0.011147	-0.046292	-0.024405	-0.698742	0.713457
04966	-0.893651	-9.769735	0.096703	-0.087329	0.115116	-0.002753	-0.046295	-0.024397	-0.698663	0.713534
04967	-0.947759	-9.655560	0.151752	-0.020722	0.060612	-0.109749	-0.046311	-0.024372	-0.698635	0.713561
04968	-0.937690	-9.675024	0.186635	-0.031868	0.025665	-0.090624	-0.046330	-0.024351	-0.698684	0.713513
04969	-0.960298	-9.700850	0.103896	-0.013269	0.107518	-0.064471	-0.046323	-0.024292	-0.698775	0.713426
04970	-0.927305	-9.757308	0.110438	-0.051051	0.099313	-0.011428	-0.046346	-0.024254	-0.698834	0.713368
04971	-0.916945	-9.776831	0.144007	-0.062092	0.064268	0.007698	-0.046346	-0.024215	-0.698892	0.713313
04972	-0.913113	-9.754051	0.081263	-0.064588	0.125195	-0.016666	-0.046373	-0.024156	-0.698934	0.713272
04973	-0.902435	-9.752714	0.151293	-0.072991	0.053973	-0.017563	-0.046410	-0.024089	-0.698962	0.713245
04974	-0.866160	-9.765405	0.133662	-0.110376	0.070353	-0.008908	-0.046441	-0.024029	-0.698984	0.713223
04975	-0.842793	-9.781509	0.142286	-0.134540	0.060970	0.004983	-0.046443	-0.023995	-0.698997	0.713212
04976	-0.878110	-9.789802	0.123182	-0.100314	0.081077	0.016343	-0.046435	-0.023976	-0.698992	0.713218
04977	-0.874096	-9.725240	0.133590	-0.097432	0.069550	-0.048065	-0.046436	-0.023981	-0.698981	0.713228
04978	-0.883903	-9.705781	0.098164	-0.086815	0.104809	-0.067196	-0.046470	-0.023971	-0.698997	0.713210
04979	-0.861018	-9.700970	0.142166	-0.108326	0.059246	-0.073327	-0.046510	-0.023952	-0.699045	0.713162
04980	-0.887146	-9.749570	0.120743	-0.087629	0.080431	-0.022817	-0.046525	-0.023905	-0.699133	0.713076
04981	-0.899748	-9.773926	0.108505	-0.077310	0.091008	0.002439	-0.046554	-0.023850	-0.699221	0.712989
04982	-0.899269	-9.773994	0.106404	-0.077572	0.091162	0.002435	-0.046596	-0.023792	-0.699281	0.712930
04983	-0.875658	-9.769290	0.149715	-0.099074	0.045596	-0.003695	-0.046635	-0.023710	-0.699338	0.712874
04984	-0.897485	-9.753348	0.139353	-0.075331	0.055199	-0.017588	-0.046659	-0.023626	-0.699366	0.712848
04985	-0.909750	-9.777708	0.129307	-0.065015	0.065780	0.007669	-0.046665	-0.023576	-0.699356	0.712859
04986	-0.905885	-9.733980	0.104505	-0.064882	0.090522	-0.036721	-0.046690	-0.023555	-0.699312	0.712901
04987	-0.879561	-9.727107	0.053378	-0.091317	0.141890	-0.047207	-0.046656	-0.023546	-0.699275	0.712940
04988	-0.901715	-9.711119	0.045562	-0.067579	0.151496	-0.061099	-0.046644	-0.023547	-0.699207	0.713007
04989	-0.950083	-9.722852	0.054181	-0.020131	0.145883	-0.044487	-0.046634	-0.023529	-0.699161	0.713054
04990	-0.949208	-9.702070	0.091164	-0.017720	0.109860	-0.064504	-0.046641	-0.023492	-0.699115	0.713100
04991	-0.929162	-9.761899	0.127009	-0.042275	0.075877	-0.006230	-0.046662	-0.023438	-0.699068	0.713146
04992	-0.905619	-9.777979	0.137546	-0.066536	0.066574	0.007653	-0.046676	-0.023375	-0.699011	0.713204
04993	-0.924300	-9.718257	0.104766	-0.042302	0.100670	-0.050623	-0.046684	-0.023344	-0.698926	0.713287
04994	-0.874826	-9.706584	0.100131	-0.090172	0.106487	-0.067245	-0.046659	-0.023334	-0.698818	0.713395
04995	-0.919559	-9.674607	0.084043	-0.042326	0.125471	-0.095016	-0.046617	-0.023331	-0.698753	0.713461
04996	-0.895760	-9.669802	0.130543	-0.063898	0.079984	-0.101147	-0.046562	-0.023347	-0.698697	0.713519
04997	-0.946912	-9.683525	0.235480	-0.011461	-0.022553	-0.080159	-0.046440	-0.023455	-0.698692	0.713528
04998	-0.888122	-9.691271	0.262747	-0.070172	-0.051858	-0.077651	-0.046253	-0.023658	-0.698742	0.713485
04999	-0.945271	-9.827733	-0.113673	-0.035727	0.327852	0.055546	-0.046144	-0.023777	-0.698723	0.713506
05000	-0.940071	-9.819663	-0.665626	-0.052871	0.883998	0.034562	-0.046239	-0.023660	-0.698400	0.713821
05001	-0.955078	-9.654370	-0.606387	-0.020198	0.834146	-0.128137	-0.046525	-0.023319	-0.697829	0.714371
05002	-0.768755	-9.389554	0.617512	-0.149254	-0.387910	-0.380653	-0.046947	-0.022817	-0.697545	0.714637
05003	-0.582227	-9.608270	1.273252	-0.338353	-1.043129	-0.165076	-0.046953	-0.022734	-0.697808	0.714383
05004	-0.830511	-10.002992	0.730790	-0.143797	-0.492301	0.238214	-0.046607	-0.023083	-0.698039	0.714169
05005	-0.998005	-9.953932	0.388786	0.019042	-0.149162	0.197573	-0.046344	-0.023336	-0.697938	0.714276
05006	-0.874724	-9.706801	-0.041151	-0.089587	0.275964	-0.070786	-0.046178	-0.023514	-0.697739	0.714475
05007	-0.999373	-9.646330	-0.550682	0.028665	0.792983	-0.131570	-0.046037	-0.023647	-0.697487	0.714726
05008	-1.008338	-9.585459	-0.507649	0.044638	0.755896	-0.190728	-0.046089	-0.023585	-0.697213	0.714992
05009	-0.957465	-9.492816	-0.004723	0.014730	0.254759	-0.275120	-0.046267	-0.023400	-0.697122	0.715075
05010	-0.857997	-9.580500	0.525638	-0.080260	-0.277155	-0.183816	-0.046411	-0.023240	-0.697331	0.714868
05011	-0.884409	-9.821831	0.540144	-0.076933	-0.292497	0.059030	-0.046432	-0.023199	-0.697649	0.714557
05012	-0.901862	-10.016023	0.335668	-0.083457	-0.089292	0.248714	-0.046366	-0.023264	-0.697764	0.714447
05013	-0.927545	-9.893429	0.240234	-0.048011	0.004510	0.126913	-0.046328	-0.023295	-0.697608	0.714600
05014	-0.874457	-9.774975	0.319740	-0.087309	-0.073689	0.005866	-0.046299	-0.023319	-0.697381	0.714824
05015	-0.906456	-9.718574	0.316453	-0.049906	-0.065214	-0.047149	-0.046239	-0.023363	-0.697189	0.715013
05016	-0.902961	-9.695879	0.259412	-0.052503	-0.004306	-0.071542	-0.046172	-0.023426	-0.697049	0.715152
05017	-0.935529	-9.702724	0.146280	-0.023306	0.112716	-0.064548	-0.046091	-0.023494	-0.696965	0.715237
05018	-0.941775	-9.639872	0.086352	-0.012359	0.172563	-0.128081	-0.046027	-0.023574	-0.696950	0.715253
05019	-0.954877	-9.685301	0.040200	-0.004819	0.219349	-0.082820	-0.045979	-0.023610	-0.697014	0.715192
05020	-0.948275	-9.748197	0.099108	-0.016283	0.159814	-0.019292	-0.046020	-0.023583	-0.697101	0.715105
05021	-0.964363	-9.795181	0.148747	-0.003651	0.109669	0.030364	-0.046069	-0.023514	-0.697165	0.715042
05022	-0.927757	-9.744785	0.237602	-0.032847	0.017424	-0.021025	-0.046153	-0.023419	-0.697207	0.715000
05023	-0.855723	-9.749054	0.238919	-0.104607	0.013586	-0.023802	-0.046243	-0.023309	-0.697224	0.714980
05024	-0.851967	-9.684439	0.248520	-0.101729	0.002126	-0.088202	-0.046305	-0.023262	-0.697231	0.714971
05025	-0.848454	-9.661868	0.186865	-0.104254	0.062928	-0.112602	-0.046335	-0.023197	-0.697238	0.714965
05026	-0.867799	-9.623336	0.116333	-0.082888	0.133323	-0.150878	-0.046355	-0.023205	-0.697214	0.714986
05027	-0.867696	-9.623345	0.116393	-0.083046	0.133381	-0.150880	-0.046384	-0.023163	-0.697226	0.714974
05028	-0.916395	-9.635109	0.122910	-0.035696	0.127957	-0.134229	-0.046443	-0.023124	-0.697255	0.714944
05029	-0.874059	-9.689631	0.201574	-0.081460	0.048273	-0.082086	-0.046479	-0.023103	-0.697314	0.714884
05030	-0.932773	-9.790275	0.355882	-0.029719	-0.103207	0.027773	-0.046408	-0.023219	-0.697340	0.714859
05031	-0.962618	-9.840590	0.432439	-0.003865	-0.178956	0.082706	-0.046340	-0.023342	-0.697388	0.714813
05032	-0.970436	-9.882648	0.191675	-0.006774	0.061803	0.119148	-0.046345	-0.023390	-0.697411	0.714789
05033	-0.967853	-9.880962	0.094673	-0.012098	0.158796	0.114737	-0.046402	-0.023376	-0.697371	0.714825
05034	-0.961311	-9.772637	0.080708	-0.008833	0.171901	0.005940	-0.046496	-0.023314	-0.697283	0.714907
05035	-0.984244	-9.756652	0.073726	0.014996	0.181472	-0.007930	-0.046578	-0.023258	-0.697198	0.714986
05036	-0.935128	-9.702859	0.139713	-0.027319	0.114819	-0.064583	-0.046640	-0.023212	-0.697152	0.715028
05037	-0.899121	-9.673422	0.194861	-0.059112	0.058635	-0.095972	-0.046722	-0.023152	-0.697154	0.715023
05038	-0.840775	-9.701990	0.186740	-0.120548	0.065393	-0.073510	-0.046822	-0.023079	-0.697192	0.714982
05039	-0.795515	-9.754918	0.168531	-0.171471	0.082620	-0.025786	-0.046897	-0.023018	-0.697224	0.714947
05040	-0.830895	-9.700290	0.255898	-0.128964	-0.005706	-0.074370	-0.046944	-0.022994	-0.697247	0.714923
05041	-0.843925	-9.724674	0.245135	-0.118705	0.004912	-0.049108	-0.046968	-0.022960	-0.697300	0.714870
05042	-0.869942	-9.731375	0.296111	-0.092552	-0.046170	-0.038566	-0.046994	-0.022989	-0.697324	0.714845
05043	-0.903382	-9.738087	0.180173	-0.063516	0.070892	-0.031591	-0.046982	-0.023047	-0.697283	0.714883
05044	-0.962471	-9.709428	0.189243	-0.002586	0.064457	-0.054050	-0.046978	-0.023127	-0.697198	0.714964
05045	-0.976186	-9.712636	0.217576	0.010463	0.038910	-0.048776	-0.046965	-0.023206	-0.697102	0.715056
05046	-0.976807	-9.712535	0.219294	0.010208	0.039067	-0.048777	-0.046986	-0.023239	-0.697059	0.715095
05047	-0.941789	-9.746123	0.167878	-0.029949	0.091413	-0.020200	-0.047021	-0.023257	-0.697014	0.715137
05048	-0.919640	-9.783042	0.143050	-0.057002	0.118235	0.013649	-0.047069	-0.023250	-0.696934	0.715211
05049	-0.857739	-9.725886	0.183351	-0.112368	0.077060	-0.048281	-0.047122	-0.023229	-0.696850	0.715290
05050	-0.916476	-9.697232	0.192491	-0.051433	0.070640	-0.070734	-0.047182	-0.023210	-0.696804	0.715331
05051	-0.867514	-9.664458	0.221705	-0.096387	0.040041	-0.107401	-0.047221	-0.023172	-0.696792	0.715342
05052	-0.880775	-9.688806	0.211749	-0.086238	0.050767	-0.082140	-0.047308	-0.023132	-0.696822	0.715308
05053	-0.907003	-9.695420	0.262439	-0.059966	-0.000387	-0.071584	-0.047384	-0.023085	-0.696892	0.715236
05054	-0.894426	-9.713186	0.198493	-0.076252	0.061558	-0.056880	-0.047462	-0.023033	-0.696977	0.715151
05055	-0.894995	-9.755270	0.124826	-0.082049	0.133982	-0.016913	-0.047542	-0.022979	-0.697053	0.715072
05056	-0.872524	-9.771222	0.132663	-0.106298	0.124610	-0.003057	-0.047636	-0.022928	-0.697075	0.715046
05057	-0.872713	-9.750179	0.167596	-0.103635	0.088486	-0.023043	-0.047736	-0.022872	-0.697103	0.715014
05058	-0.849868	-9.724101	0.247339	-0.122228	0.006742	-0.049153	-0.047815	-0.022830	-0.697136	0.714978
05059	-0.866332	-9.771075	0.297902	-0.109531	-0.043357	0.000534	-0.047865	-0.022800	-0.697184	0.714929
05060	-0.840492	-9.743420	0.280314	-0.133400	-0.028183	-0.030016	-0.047903	-0.022807	-0.697212	0.714899
05061	-0.899561	-9.735800	0.251587	-0.075188	0.001519	-0.032470	-0.047947	-0.022806	-0.697218	0.714890
05062	-0.942249	-9.681196	0.171888	-0.029932	0.081472	-0.084615	-0.047965	-0.022818	-0.697189	0.714917
05063	-0.965216	-9.665195	0.163236	-0.006106	0.091065	-0.098474	-0.047990	-0.022825	-0.697165	0.714938
05064	-0.952644	-9.682851	0.102000	-0.022431	0.153005	-0.083781	-0.048010	-0.022825	-0.697139	0.714962
05065	-0.956388	-9.747468	0.092610	-0.025804	0.164705	-0.019394	-0.048062	-0.022809	-0.697111	0.714987
05066	-0.894615	-9.711412	0.095649	-0.084058	0.159751	-0.061358	-0.048122	-0.022779	-0.697088	0.715006
05067	-0.907637	-9.693692	0.157619	-0.068142	0.098028	-0.076053	-0.048183	-0.022764	-0.697089	0.715001
05068	-0.888446	-9.732258	0.227378	-0.089905	0.027909	-0.037770	-0.048230	-0.022765	-0.697145	0.714944
05069	-0.866076	-9.748245	0.234586	-0.114049	0.018433	-0.023916	-0.048263	-0.022767	-0.697230	0.714859
05070	-0.879357	-9.751595	0.258732	-0.101068	-0.007011	-0.018630	-0.048297	-0.022775	-0.697277	0.714810
05071	-0.879435	-9.730614	0.293091	-0.098368	-0.043134	-0.038609	-0.048316	-0.022787	-0.697320	0.714767
05072	-0.915962	-9.780945	0.201946	-0.069970	0.049523	0.012754	-0.048318	-0.022803	-0.697327	0.714759
05073	-0.939227	-9.785914	0.157638	-0.049002	0.095312	0.018875	-0.048347	-0.022828	-0.697262	0.714819
05074	-0.959217	-9.747223	0.089155	-0.027773	0.165743	-0.019417	-0.048349	-0.022859	-0.697159	0.714919
05075	-0.958928	-9.726198	0.127447	-0.025071	0.129621	-0.039393	-0.048371	-0.022828	-0.697065	0.715010
05076	-0.984072	-9.690817	0.252717	0.006889	0.006222	-0.068761	-0.048389	-0.022811	-0.697027	0.715046
05077	-0.915199	-9.717773	0.315876	-0.062351	-0.058545	-0.047178	-0.048347	-0.022823	-0.697080	0.714997
05078	-0.908234	-9.759815	0.410153	-0.070833	-0.154259	-0.003595	-0.048232	-0.022941	-0.697195	0.714889
05079	-0.902843	-9.819623	0.105835	-0.090371	0.148184	0.047394	-0.048141	-0.023032	-0.697282	0.714807
05080	-0.949869	-9.868447	-0.417007	-0.062473	0.674253	0.087003	-0.048234	-0.022925	-0.697121	0.714962
05081	-0.979027	-9.724000	-0.733800	-0.027270	0.997062	-0.062905	-0.048469	-0.022613	-0.696650	0.715415
05082	-0.914491	-9.418999	0.203444	-0.034367	0.062649	-0.347482	-0.048903	-0.022108	-0.696285	0.715756
05083	-0.667501	-9.474800	1.175572	-0.256480	-0.912317	-0.288966	-0.049126	-0.021854	-0.696457	0.715582
05084	-0.751992	-10.004889	0.928194	-0.232624	-0.656197	0.239184	-0.048890	-0.022073	-0.696806	0.715251
05085	-0.963001	-10.094607	0.544285	-0.043254	-0.268987	0.338691	-0.048624	-0.022367	-0.696816	0.715250
05086	-0.875681	-9.793687	0.200828	-0.110127	0.067055	0.021276	-0.048466	-0.022553	-0.696588	0.715477
05087	-0.877548	-9.704225	-0.374577	-0.115572	0.646508	-0.083810	-0.048305	-0.022752	-0.696314	0.715748
05088	-0.997932	-9.562030	-0.474434	0.015144	0.754135	-0.216625	-0.048308	-0.022802	-0.695995	0.716056
05089	-0.950616	-9.404109	-0.128622	-0.006951	0.409391	-0.368651	-0.048463	-0.022625	-0.695832	0.716210
05090	-0.896353	-9.437313	0.421644	-0.049090	-0.139885	-0.324688	-0.048667	-0.022424	-0.695913	0.716124
05091	-0.853478	-9.620742	0.644302	-0.103563	-0.364612	-0.140120	-0.048771	-0.022301	-0.696273	0.715771
05092	-0.864666	-9.899623	0.462950	-0.125196	-0.184761	0.132899	-0.048780	-0.022269	-0.696571	0.715481
05093	-0.874787	-9.943782	0.315910	-0.123338	-0.040993	0.173651	-0.048749	-0.022283	-0.696600	0.715454
05094	-0.845052	-9.872511	0.275356	-0.146854	-0.001335	0.098661	-0.048704	-0.022327	-0.696441	0.715611
05095	-0.840984	-9.786676	0.325348	-0.140832	-0.049105	0.014311	-0.048632	-0.022390	-0.696270	0.715780
05096	-0.850700	-9.767321	0.294625	-0.130369	-0.013810	-0.004840	-0.048549	-0.022498	-0.696090	0.715958
05097	-0.867231	-9.706354	0.166485	-0.111647	0.117263	-0.067591	-0.048470	-0.022589	-0.695958	0.716088
05098	-0.873584	-9.622437	0.144107	-0.097917	0.140905	-0.151126	-0.048398	-0.022696	-0.695841	0.716203
05099	-0.886682	-9.646785	0.136524	-0.087724	0.151580	-0.125860	-0.048322	-0.022764	-0.695799	0.716248
05100	-0.886361	-9.625665	0.172320	-0.085060	0.115544	-0.145828	-0.048290	-0.022813	-0.695818	0.716229
05101	-0.870529	-9.749833	0.196573	-0.112840	0.093147	-0.023188	-0.048264	-0.022853	-0.695870	0.716180
05102	-0.919509	-9.761539	0.202471	-0.065495	0.087916	-0.006458	-0.048254	-0.022894	-0.695900	0.716149
05103	-0.861231	-9.811278	0.158960	-0.129814	0.130592	0.035879	-0.048239	-0.022911	-0.695895	0.716155
05104	-0.883765	-9.795360	0.150103	-0.106095	0.140320	0.022032	-0.048227	-0.022922	-0.695856	0.716193
05105	-0.954854	-9.748875	0.220117	-0.028810	0.072217	-0.014998	-0.048219	-0.022932	-0.695817	0.716231
05106	-0.915265	-9.696905	0.213584	-0.063033	0.076705	-0.070848	-0.048223	-0.022906	-0.695821	0.716229
05107	-0.950955	-9.726521	0.158672	-0.031806	0.133151	-0.039460	-0.048253	-0.022879	-0.695836	0.716212
05108	-0.969654	-9.645984	0.158462	-0.004791	0.131227	-0.117683	-0.048288	-0.022793	-0.695866	0.716184
05109	-0.962241	-9.687695	0.254387	-0.013059	0.035440	-0.074072	-0.048290	-0.022746	-0.695902	0.716150
05110	-0.919377	-9.742052	0.333859	-0.058680	-0.044286	-0.021932	-0.048176	-0.022846	-0.695906	0.716151
05111	-0.922424	-9.764506	0.395252	-0.056237	-0.104931	0.002530	-0.048041	-0.022986	-0.695892	0.716169
05112	-0.929040	-9.765141	0.227520	-0.054281	0.063466	-0.001170	-0.047943	-0.023082	-0.695859	0.716205
05113	-0.853993	-9.810328	0.062959	-0.137467	0.228582	0.031329	-0.047920	-0.023067	-0.695769	0.716294
05114	-0.898694	-9.757397	0.083158	-0.086825	0.211718	-0.016310	-0.047926	-0.023038	-0.695611	0.716448
05115	-0.871791	-9.708644	0.106694	-0.107663	0.190527	-0.066854	-0.047913	-0.023011	-0.695440	0.716616
05116	-0.945604	-9.684495	0.240880	-0.027829	0.061829	-0.079392	-0.047898	-0.022977	-0.695329	0.716726
05117	-0.944519	-9.642181	0.313870	-0.022070	-0.010483	-0.119303	-0.047888	-0.022940	-0.695304	0.716752
05118	-0.934171	-9.682549	0.313569	-0.035964	-0.009290	-0.080197	-0.047921	-0.022882	-0.695333	0.716723
05119	-0.923800	-9.701761	0.348017	-0.046800	-0.044375	-0.061045	-0.047953	-0.022815	-0.695372	0.716685
05120	-0.932896	-9.682738	0.311506	-0.036366	-0.009068	-0.080198	-0.047948	-0.022788	-0.695407	0.716653
05121	-0.935686	-9.747539	0.300239	-0.039841	0.002662	-0.015822	-0.047923	-0.022775	-0.695478	0.716586
05122	-0.863790	-9.772943	0.265297	-0.114639	0.034743	0.001210	-0.047898	-0.022809	-0.695515	0.716550
05123	-0.863899	-9.794117	0.228934	-0.117770	0.070991	0.021160	-0.047876	-0.022852	-0.695522	0.716544
05124	-0.863871	-9.772951	0.264706	-0.115051	0.034953	0.001204	-0.047817	-0.022926	-0.695494	0.716573
05125	-0.837673	-9.724150	0.284233	-0.135861	0.013741	-0.049341	-0.047760	-0.022994	-0.695483	0.716585
05126	-0.860218	-9.665952	0.345761	-0.106180	-0.048889	-0.103079	-0.047700	-0.023058	-0.695506	0.716564
05127	-0.860235	-9.687146	0.309179	-0.109313	-0.012634	-0.083130	-0.047650	-0.023120	-0.695543	0.716530
05128	-0.918932	-9.679767	0.279800	-0.051291	0.017356	-0.085526	-0.047598	-0.023203	-0.695566	0.716508
05129	-0.870214	-9.668040	0.271866	-0.099045	0.022734	-0.102288	-0.047556	-0.023260	-0.695597	0.716479
05130	-0.941904	-9.706201	0.197293	-0.033697	0.099559	-0.059462	-0.047507	-0.023323	-0.695623	0.716455
05131	-0.919495	-9.743230	0.170527	-0.060821	0.126207	-0.025683	-0.047500	-0.023387	-0.695626	0.716451
05132	-0.929625	-9.702899	0.170330	-0.047421	0.125328	-0.064790	-0.047503	-0.023425	-0.695639	0.716437
05133	-0.907154	-9.718790	0.178960	-0.071554	0.115792	-0.050961	-0.047520	-0.023434	-0.695673	0.716402
05134	-0.910742	-9.762342	0.203416	-0.072158	0.091430	-0.006537	-0.047549	-0.023433	-0.695731	0.716344
05135	-0.874999	-9.753897	0.220406	-0.106606	0.071241	-0.017982	-0.047574	-0.023417	-0.695815	0.716261
05136	-0.897759	-9.695795	0.279781	-0.076885	0.008622	-0.071707	-0.047615	-0.023404	-0.695906	0.716170
05137	-0.888164	-9.736169	0.276541	-0.090706	0.009714	-0.032607	-0.047643	-0.023382	-0.696030	0.716049
05138	-0.875049	-9.732996	0.246916	-0.104274	0.035413	-0.037937	-0.047632	-0.023404	-0.696163	0.715920
05139	-0.878430	-9.776662	0.269428	-0.104780	0.010961	0.006490	-0.047622	-0.023422	-0.696260	0.715826
05140	-0.901243	-9.760810	0.257236	-0.081061	0.020728	-0.007340	-0.047587	-0.023486	-0.696356	0.715732
05141	-0.888512	-9.778610	0.193066	-0.097551	0.082528	0.007273	-0.047546	-0.023570	-0.696429	0.715661
05142	-0.934359	-9.788880	0.101188	-0.055894	0.174296	0.019501	-0.047520	-0.023638	-0.696469	0.715622
05143	-0.967037	-9.732637	0.091382	-0.018423	0.182941	-0.033427	-0.047493	-0.023699	-0.696465	0.715625
05144	-0.976947	-9.671256	0.127520	-0.001997	0.145875	-0.092472	-0.047494	-0.023732	-0.696443	0.715646
05145	-0.951116	-9.601435	0.182372	-0.019744	0.088452	-0.162961	-0.047526	-0.023741	-0.696468	0.715618
05146	-0.987283	-9.546717	0.268168	0.023347	0.000304	-0.211338	-0.047579	-0.023724	-0.696595	0.715492
05147	-0.932527	-9.597933	0.318089	-0.035393	-0.054032	-0.164530	-0.047617	-0.023718	-0.696780	0.715309
05148	-0.962610	-9.690408	0.318683	-0.015383	-0.057081	-0.069552	-0.047645	-0.023749	-0.697007	0.715086
05149	-0.921204	-9.766103	0.356787	-0.063820	-0.100765	0.002528	-0.047668	-0.023768	-0.697234	0.714862
05150	-0.925122	-9.851877	0.304992	-0.070478	-0.052734	0.086838	-0.047696	-0.023789	-0.697431	0.714667
05151	-0.916026	-9.892273	0.299683	-0.084309	-0.051636	0.125934	-0.047721	-0.023815	-0.697580	0.714519
05152	-0.903505	-9.909872	0.234635	-0.100934	0.010248	0.140536	-0.047745	-0.023849	-0.697659	0.714439
05153	-0.900477	-9.866186	0.207307	-0.100757	0.034820	0.096101	-0.047732	-0.023894	-0.697695	0.714404
05154	-0.884416	-9.798148	0.190471	-0.110968	0.048823	0.026391	-0.047728	-0.023965	-0.697722	0.714375
05155	-0.881385	-9.775364	0.127931	-0.113838	0.109584	0.001893	-0.047680	-0.024043	-0.697771	0.714328
05156	-0.917552	-9.741856	0.178720	-0.073745	0.057642	-0.026532	-0.047649	-0.024118	-0.697824	0.714276
05157	-0.904916	-9.717527	0.186769	-0.084200	0.047049	-0.051807	-0.047554	-0.024259	-0.697883	0.714219
05158	-0.873271	-9.752876	0.229387	-0.119054	0.002405	-0.018830	-0.047402	-0.024474	-0.697961	0.714146
05159	-0.950886	-9.831880	-0.086191	-0.058052	0.319882	0.060092	-0.047306	-0.024618	-0.697986	0.714123
05160	-1.017402	-9.842629	-0.581335	-0.005326	0.819543	0.065506	-0.047438	-0.024530	-0.697754	0.714344
05161	-1.048991	-9.657526	-0.727785	0.040707	0.973090	-0.119944	-0.047732	-0.024229	-0.697232	0.714844
05162	-0.914854	-9.337548	0.416786	-0.032429	-0.170448	-0.422779	-0.048197	-0.023749	-0.696934	0.715119
05163	-0.685353	-9.460176	1.209930	-0.252326	-0.966303	-0.303158	-0.048331	-0.023619	-0.697220	0.714836
05164	-0.850114	-10.008171	0.849655	-0.154326	-0.597632	0.248481	-0.048067	-0.023963	-0.697570	0.714501
05165	-0.990243	-9.952481	0.451718	-0.020824	-0.202209	0.197067	-0.047834	-0.024287	-0.697545	0.714530
05166	-0.887637	-9.689203	0.011374	-0.108007	0.231182	-0.086251	-0.047656	-0.024536	-0.697409	0.714666
05167	-0.967593	-9.703960	-0.456591	-0.042007	0.705248	-0.075521	-0.047497	-0.024776	-0.697235	0.714839
05168	-1.091017	-9.604966	-0.534515	0.088156	0.788788	-0.163778	-0.047507	-0.024830	-0.697046	0.715020
05169	-1.021912	-9.570565	-0.095153	0.032446	0.350021	-0.193669	-0.047705	-0.024662	-0.697017	0.715041
05170	-0.936621	-9.618433	0.435535	-0.044871	-0.183495	-0.140794	-0.047903	-0.024457	-0.697215	0.714842
05171	-0.957692	-9.859812	0.617813	-0.043959	-0.366608	0.105902	-0.048012	-0.024361	-0.697543	0.714517
05172	-0.993057	-10.015128	0.341427	-0.031532	-0.092775	0.256867	-0.048021	-0.024362	-0.697710	0.714354
05173	-0.959898	-9.900062	0.273461	-0.054646	-0.028865	0.137368	-0.048039	-0.024381	-0.697580	0.714479
05174	-0.930527	-9.744734	0.379662	-0.065850	-0.134139	-0.017406	-0.048043	-0.024399	-0.697339	0.714713
05175	-0.887517	-9.648860	0.353178	-0.099567	-0.105405	-0.117745	-0.047988	-0.024442	-0.697162	0.714888
05176	-0.906015	-9.673078	0.179411	-0.087877	0.073669	-0.096292	-0.047901	-0.024518	-0.697019	0.715031
05177	-0.901682	-9.692432	0.050342	-0.096987	0.206805	-0.080955	-0.047790	-0.024594	-0.696875	0.715176
05178	-0.923815	-9.676506	0.044062	-0.073284	0.216612	-0.094773	-0.047708	-0.024669	-0.696773	0.715278
05179	-0.975951	-9.710852	0.113668	-0.023099	0.150807	-0.053447	-0.047640	-0.024717	-0.696754	0.715299
05180	-0.992154	-9.778866	0.129357	-0.013427	0.137150	0.016267	-0.047632	-0.024716	-0.696781	0.715274
05181	-0.972521	-9.817505	0.199273	-0.034785	0.066879	0.054593	-0.047653	-0.024643	-0.696816	0.715241
05182	-0.936004	-9.809204	0.217840	-0.069270	0.046699	0.043126	-0.047689	-0.024576	-0.696824	0.715233
05183	-0.912580	-9.825227	0.227274	-0.093398	0.037112	0.056935	-0.047684	-0.024536	-0.696812	0.715246
05184	-0.891372	-9.755724	0.114850	-0.109468	0.147955	-0.017382	-0.047666	-0.024509	-0.696775	0.715284
05185	-0.936102	-9.702859	0.133058	-0.058598	0.131151	-0.064927	-0.047639	-0.024506	-0.696700	0.715359
05186	-0.928566	-9.615635	0.083936	-0.058191	0.180285	-0.153814	-0.047635	-0.024507	-0.696601	0.715456
05187	-0.918711	-9.613882	0.156947	-0.065831	0.108988	-0.154573	-0.047665	-0.024444	-0.696554	0.715502
05188	-0.980226	-9.607948	0.225943	-0.001998	0.042277	-0.152316	-0.047708	-0.024367	-0.696554	0.715502
05189	-0.950721	-9.707876	0.260448	-0.040165	0.009213	-0.054980	-0.047695	-0.024342	-0.696578	0.715480
05190	-0.996895	-9.784080	0.425233	0.002175	-0.152325	0.030058	-0.047591	-0.024436	-0.696556	0.715505
05191	-0.960631	-9.817747	0.373477	-0.038442	-0.100215	0.058428	-0.047483	-0.024532	-0.696532	0.715532
05192	-0.880975	-9.818902	0.182945	-0.122094	0.089177	0.046195	-0.047428	-0.024563	-0.696481	0.715585
05193	-0.850475	-9.789732	0.071364	-0.151821	0.200932	0.010949	-0.047426	-0.024558	-0.696399	0.715665
05194	-0.872836	-9.773814	0.064615	-0.128123	0.210755	-0.002865	-0.047433	-0.024547	-0.696273	0.715788
05195	-0.842881	-9.660431	0.097203	-0.145331	0.177726	-0.117786	-0.047420	-0.024526	-0.696157	0.715902
05196	-0.908354	-9.676910	0.229133	-0.078669	0.050358	-0.090987	-0.047433	-0.024513	-0.696105	0.715951
05197	-0.956948	-9.688677	0.236316	-0.031238	0.045292	-0.074154	-0.047444	-0.024488	-0.696116	0.715941
05198	-0.930290	-9.661060	0.219791	-0.055123	0.060256	-0.104796	-0.047477	-0.024435	-0.696120	0.715937
05199	-0.916807	-9.636726	0.229592	-0.065526	0.049632	-0.130076	-0.047508	-0.024389	-0.696104	0.715952
05200	-0.919941	-9.659272	0.291235	-0.062960	-0.010893	-0.105547	-0.047509	-0.024353	-0.696097	0.715960
05201	-0.958806	-9.690300	0.333099	-0.026092	-0.051130	-0.069542	-0.047466	-0.024381	-0.696121	0.715939
05202	-0.945395	-9.687058	0.306175	-0.039731	-0.025474	-0.074907	-0.047431	-0.024424	-0.696158	0.715903
05203	-0.922786	-9.702995	0.314717	-0.063850	-0.035087	-0.061104	-0.047384	-0.024500	-0.696180	0.715883
05204	-0.968247	-9.692242	0.259114	-0.019333	0.020626	-0.068797	-0.047335	-0.024584	-0.696211	0.715853
05205	-0.959160	-9.690417	0.328650	-0.026900	-0.050685	-0.069542	-0.047297	-0.024640	-0.696284	0.715782
05206	-0.959275	-9.711522	0.290781	-0.030307	-0.014332	-0.049630	-0.047292	-0.024695	-0.696360	0.715707
05207	-0.923372	-9.745229	0.236469	-0.070984	0.037744	-0.021285	-0.047285	-0.024704	-0.696436	0.715634
05208	-0.945581	-9.771451	0.153786	-0.053605	0.119977	0.004734	-0.047291	-0.024712	-0.696482	0.715587
05209	-0.959214	-9.753723	0.214449	-0.037205	0.058360	-0.009810	-0.047309	-0.024740	-0.696495	0.715572
05210	-0.929655	-9.703437	0.136076	-0.063936	0.133981	-0.064999	-0.047329	-0.024767	-0.696531	0.715536
05211	-0.920683	-9.701653	0.205592	-0.071489	0.062676	-0.065741	-0.047340	-0.024778	-0.696605	0.715463
05212	-0.934151	-9.705014	0.229098	-0.058340	0.037339	-0.060374	-0.047352	-0.024807	-0.696699	0.715369
05213	-0.918017	-9.637053	0.210213	-0.068408	0.051185	-0.130104	-0.047374	-0.024835	-0.696814	0.715254
05214	-0.895516	-9.674031	0.180712	-0.095795	0.077843	-0.096400	-0.047405	-0.024834	-0.696933	0.715137
05215	-0.957994	-9.689180	0.209988	-0.034958	0.047331	-0.074177	-0.047467	-0.024818	-0.697048	0.715021
05216	-0.900325	-9.675778	0.271054	-0.090172	-0.018805	-0.091769	-0.047530	-0.024806	-0.697179	0.714890
05217	-0.930089	-9.768232	0.272770	-0.070201	-0.021789	0.003239	-0.047587	-0.024746	-0.697354	0.714717
05218	-0.894208	-9.780930	0.251558	-0.107821	-0.005842	0.011661	-0.047634	-0.024730	-0.697520	0.714553
05219	-0.884887	-9.821301	0.246964	-0.121714	-0.004766	0.050736	-0.047635	-0.024769	-0.697653	0.714421
05220	-0.894614	-9.843785	0.136593	-0.117805	0.102966	0.071371	-0.047628	-0.024860	-0.697759	0.714315
05221	-0.855904	-9.812598	0.092203	-0.155023	0.143300	0.035337	-0.047619	-0.024924	-0.697814	0.714259
05222	-0.888551	-9.777201	0.045906	-0.120788	0.188336	0.002364	-0.047649	-0.024950	-0.697852	0.714220
05223	-0.908503	-9.675675	0.081270	-0.090291	0.150177	-0.095694	-0.047685	-0.024955	-0.697891	0.714178
05224	-0.958275	-9.645620	0.157794	-0.036561	0.072870	-0.118642	-0.047746	-0.024942	-0.697961	0.714106
05225	-0.994364	-9.633093	0.171519	0.000647	0.057162	-0.127059	-0.047814	-0.024882	-0.698086	0.713982
05226	-1.017007	-9.617179	0.158117	0.024348	0.067023	-0.140854	-0.047880	-0.024833	-0.698249	0.713821
05227	-0.984901	-9.652696	0.197875	-0.010307	0.022201	-0.107888	-0.047937	-0.024781	-0.698454	0.713618
05228	-0.943510	-9.707734	0.271923	-0.055582	-0.057720	-0.055749	-0.048008	-0.024748	-0.698689	0.713384
05229	-0.934088	-9.768975	0.228961	-0.072694	-0.020443	0.003224	-0.048055	-0.024745	-0.698931	0.713143
05230	-0.947236	-9.834909	0.141523	-0.069163	0.062828	0.068303	-0.048102	-0.024751	-0.699103	0.712971
05231	-0.918029	-9.742555	0.132088	-0.089437	0.065924	-0.026715	-0.048132	-0.024761	-0.699209	0.712865
05232	-0.870151	-9.709981	0.158696	-0.134069	0.034926	-0.063489	-0.048172	-0.024830	-0.699289	0.712782
05233	-0.858408	-9.664910	0.201682	-0.141225	-0.011929	-0.108671	-0.048164	-0.024913	-0.699404	0.712666
05234	-0.863047	-9.708721	0.223486	-0.141796	-0.036244	-0.064219	-0.048155	-0.025019	-0.699533	0.712537
05235	-0.909197	-9.697358	0.165255	-0.097279	0.019442	-0.071904	-0.048146	-0.025109	-0.699651	0.712419
05236	-0.972065	-9.754041	0.122343	-0.042967	0.061483	-0.009853	-0.048105	-0.025256	-0.699775	0.712294
05237	-0.981283	-9.779593	0.276280	-0.034081	-0.095967	0.019368	-0.048015	-0.025436	-0.699941	0.712131
05238	-0.950226	-9.856637	0.243744	-0.075268	-0.068317	0.092125	-0.047882	-0.025693	-0.700144	0.711931
05239	-0.959325	-9.960963	-0.012593	-0.084313	0.184130	0.192323	-0.047806	-0.025854	-0.700322	0.711755
05240	-1.019147	-9.965403	-0.609061	-0.039764	0.780866	0.192689	-0.047944	-0.025756	-0.700215	0.711854
05241	-1.063237	-9.761795	-0.695724	0.022630	0.872755	-0.007335	-0.048251	-0.025436	-0.699811	0.712242
05242	-0.850183	-9.451459	0.426359	-0.130363	-0.250581	-0.317695	-0.048711	-0.024966	-0.699606	0.712429
05243	-0.672963	-9.675398	1.080387	-0.312636	-0.907429	-0.101237	-0.048768	-0.024847	-0.699968	0.712073
05244	-0.922126	-10.132884	0.615844	-0.124191	-0.438295	0.370504	-0.048462	-0.025195	-0.700249	0.711806
05245	-1.027606	-10.088845	0.299964	-0.023432	-0.123492	0.332013	-0.048215	-0.025507	-0.700157	0.711902
05246	-0.940858	-9.762275	-0.170251	-0.087621	0.343466	-0.010108	-0.048041	-0.025730	-0.699941	0.712118
05247	-1.040455	-9.757503	-0.646121	0.000387	0.827530	-0.013500	-0.047921	-0.025911	-0.699701	0.712356
05248	-1.082408	-9.681959	-0.683675	0.048306	0.871602	-0.085543	-0.048005	-0.025884	-0.699443	0.712604
05249	-1.011924	-9.586404	-0.230147	-0.002027	0.420847	-0.179465	-0.048216	-0.025665	-0.699269	0.712769
05250	-0.942363	-9.641467	0.330888	-0.063843	-0.138390	-0.120825	-0.048382	-0.025481	-0.699288	0.712745
05251	-0.969974	-9.820400	0.455565	-0.051809	-0.261610	0.062408	-0.048444	-0.025414	-0.699450	0.712585
05252	-1.000173	-9.909312	0.193611	-0.037173	0.000670	0.148784	-0.048429	-0.025411	-0.699427	0.712608
05253	-0.965811	-9.814612	0.095369	-0.063622	0.100575	0.049073	-0.048405	-0.025426	-0.699142	0.712889
05254	-0.906036	-9.629871	0.093398	-0.104001	0.106687	-0.140985	-0.048355	-0.025489	-0.698770	0.713255
05255	-0.902300	-9.586012	0.077223	-0.103855	0.131209	-0.185448	-0.048258	-0.025609	-0.698446	0.713574
05256	-0.898455	-9.563035	0.023693	-0.107071	0.192014	-0.210028	-0.048155	-0.025748	-0.698181	0.713836
05257	-0.872386	-9.535271	0.013621	-0.130882	0.206800	-0.240711	-0.048062	-0.025886	-0.697991	0.714023
05258	-0.935161	-9.550341	0.049873	-0.070098	0.176514	-0.218420	-0.047987	-0.026033	-0.697870	0.714140
05259	-0.930383	-9.592525	0.147814	-0.077793	0.080736	-0.174668	-0.047955	-0.026100	-0.697880	0.714130
05260	-0.996853	-9.630479	0.240088	-0.014033	-0.010191	-0.127792	-0.047961	-0.026111	-0.697955	0.714057
05261	-1.008343	-9.740848	0.349593	-0.011844	-0.119669	-0.014288	-0.047998	-0.026082	-0.698072	0.713940
05262	-0.989605	-9.779863	0.417082	-0.033067	-0.189901	0.024072	-0.048039	-0.026037	-0.698189	0.713825
05263	-0.930615	-9.808642	0.406832	-0.094582	-0.183854	0.046231	-0.048052	-0.025991	-0.698315	0.713702
05264	-0.916477	-9.826216	0.341954	-0.111581	-0.122044	0.060713	-0.048030	-0.025997	-0.698414	0.713607
05265	-0.934222	-9.808235	0.233107	-0.094066	-0.015376	0.042235	-0.047990	-0.026003	-0.698473	0.713552
05266	-0.938467	-9.786751	0.099417	-0.090116	0.116827	0.018352	-0.047963	-0.025993	-0.698499	0.713529
05267	-0.947613	-9.725702	0.135198	-0.073216	0.079693	-0.040594	-0.047954	-0.025958	-0.698501	0.713528
05268	-0.986900	-9.736165	0.212268	-0.033070	0.003497	-0.024387	-0.047967	-0.025918	-0.698530	0.713501
05269	-0.977622	-9.714100	0.317901	-0.037114	-0.104030	-0.044967	-0.047959	-0.025891	-0.698595	0.713438
05270	-1.020536	-9.789205	0.383382	-0.000562	-0.168465	0.035593	-0.047859	-0.025980	-0.698641	0.713397
05271	-1.047061	-9.796227	0.433662	0.026218	-0.219289	0.046404	-0.047762	-0.026082	-0.698683	0.713359
05272	-1.047012	-9.793270	0.167579	0.020531	0.045969	0.037689	-0.047715	-0.026129	-0.698685	0.713358
05273	-1.024461	-9.764738	-0.015699	-0.002423	0.228989	0.002986	-0.047690	-0.026088	-0.698614	0.713431
05274	-1.015730	-9.698120	-0.100113	-0.005386	0.314240	-0.066074	-0.047730	-0.026014	-0.698519	0.713524
05275	-0.988990	-9.649639	-0.077324	-0.025894	0.292806	-0.116646	-0.047757	-0.025943	-0.698400	0.713641
05276	-0.962631	-9.580299	-0.019319	-0.043169	0.235248	-0.187099	-0.047801	-0.025867	-0.698348	0.713692
05277	-0.943392	-9.619282	0.051881	-0.064281	0.164920	-0.148737	-0.047844	-0.025784	-0.698365	0.713675
05278	-0.924183	-9.658271	0.121688	-0.085473	0.094672	-0.110376	-0.047914	-0.025690	-0.698415	0.713625
05279	-0.891886	-9.673005	0.200294	-0.116727	0.013586	-0.097298	-0.047959	-0.025594	-0.698517	0.713526
05280	-0.872131	-9.732920	0.231955	-0.141231	-0.020463	-0.039060	-0.047960	-0.025551	-0.698650	0.713397
05281	-0.936989	-9.833689	0.214858	-0.087287	-0.002792	0.067491	-0.047945	-0.025571	-0.698733	0.713316
05282	-0.928533	-9.787781	0.090971	-0.093591	0.118649	0.018298	-0.047885	-0.025599	-0.698746	0.713306
05283	-0.963770	-9.775346	0.107150	-0.056333	0.103043	0.009936	-0.047832	-0.025611	-0.698735	0.713320
05284	-0.972138	-9.776704	0.036613	-0.049469	0.174605	0.010622	-0.047779	-0.025657	-0.698688	0.713368
05285	-0.968243	-9.712170	0.048168	-0.046005	0.162912	-0.053722	-0.047723	-0.025672	-0.698644	0.713414
05286	-1.003441	-9.699738	0.065643	-0.008834	0.147398	-0.062082	-0.047691	-0.025665	-0.698595	0.713465
05287	-0.954130	-9.667196	0.096090	-0.053247	0.116177	-0.098886	-0.047670	-0.025649	-0.698565	0.713496
05288	-0.993727	-9.677694	0.174057	-0.013031	0.040026	-0.082643	-0.047667	-0.025654	-0.698555	0.713506
05289	-0.921662	-9.681931	0.177076	-0.084731	0.035229	-0.085808	-0.047642	-0.025636	-0.698570	0.713493
05290	-0.933967	-9.706310	0.166371	-0.074839	0.046151	-0.060524	-0.047596	-0.025658	-0.698600	0.713467
05291	-0.919851	-9.723676	0.103981	-0.091856	0.107855	-0.046073	-0.047567	-0.025687	-0.698614	0.713454
05292	-0.955507	-9.711222	0.119713	-0.054677	0.092349	-0.054427	-0.047527	-0.025710	-0.698632	0.713438
05293	-0.967597	-9.756388	0.072851	-0.048060	0.139400	-0.009274	-0.047482	-0.025734	-0.698680	0.713393
05294	-0.989829	-9.740453	0.061851	-0.024379	0.149332	-0.023044	-0.047461	-0.025750	-0.698728	0.713347
05295	-0.940873	-9.707889	0.089966	-0.068777	0.118084	-0.059853	-0.047447	-0.025737	-0.698776	0.713302
05296	-0.975670	-9.716293	0.069034	-0.034954	0.138789	-0.048336	-0.047419	-0.025707	-0.698823	0.713258
05297	-0.939886	-9.687264	0.123123	-0.065848	0.082107	-0.079725	-0.047400	-0.025721	-0.698863	0.713220
05298	-0.952949	-9.690827	0.147662	-0.052603	0.056834	-0.074307	-0.047418	-0.025693	-0.698910	0.713174
05299	-0.984661	-9.634643	0.136942	-0.015031	0.065695	-0.127125	-0.047401	-0.025664	-0.698978	0.713109
05300	-0.983977	-9.634738	0.135159	-0.015286	0.065852	-0.127126	-0.047414	-0.025626	-0.699035	0.713054
05301	-0.974195	-9.654334	0.168828	-0.025895	0.030705	-0.107940	-0.047423	-0.025593	-0.699097	0.712993
05302	-0.937656	-9.666866	0.150839	-0.063598	0.046505	-0.099602	-0.047416	-0.025574	-0.699153	0.712939
05303	-0.953474	-9.755796	0.128550	-0.057310	0.069131	-0.009977	-0.047405	-0.025586	-0.699215	0.712879
05304	-0.939730	-9.752303	0.101270	-0.071078	0.094711	-0.015405	-0.047391	-0.025576	-0.699251	0.712845
05305	-0.925922	-9.748803	0.074672	-0.084762	0.120206	-0.020832	-0.047372	-0.025586	-0.699263	0.712834
05306	-0.889846	-9.761248	0.058033	-0.122475	0.135997	-0.012501	-0.047373	-0.025615	-0.699266	0.712830
05307	-0.912508	-9.745259	0.048285	-0.098714	0.145854	-0.026265	-0.047379	-0.025617	-0.699269	0.712826
05308	-0.926188	-9.728092	0.109225	-0.082075	0.084384	-0.040704	-0.047395	-0.025601	-0.699312	0.712784
05309	-0.903764	-9.723395	0.152650	-0.102797	0.038462	-0.046805	-0.047395	-0.025593	-0.699405	0.712693
05310	-0.916929	-9.727024	0.175740	-0.089538	0.013197	-0.041380	-0.047390	-0.025600	-0.699503	0.712597
05311	-0.917225	-9.706381	0.208674	-0.086311	-0.022942	-0.061241	-0.047386	-0.025605	-0.699612	0.712490
05312	-0.952678	-9.714735	0.186373	-0.052503	-0.002209	-0.049714	-0.047364	-0.025638	-0.699692	0.712412
05313	-0.952444	-9.714798	0.184291	-0.052672	-0.002137	-0.049715	-0.047355	-0.025630	-0.699755	0.712351
05314	-0.915542	-9.747963	0.130497	-0.093788	0.049845	-0.021531	-0.047323	-0.025647	-0.699801	0.712307
05315	-0.936167	-9.794087	0.012308	-0.080231	0.168322	0.024281	-0.047270	-0.025662	-0.699818	0.712293
05316	-0.909223	-9.766272	-0.003627	-0.104139	0.183103	-0.006445	-0.047230	-0.025684	-0.699808	0.712305
05317	-0.910068	-9.704277	0.103838	-0.094096	0.074558	-0.066017	-0.047166	-0.025708	-0.699825	0.712292
05318	-0.914665	-9.686185	0.235323	-0.084421	-0.058323	-0.081108	-0.047048	-0.025805	-0.699902	0.712220
05319	-0.878715	-9.678036	0.251139	-0.118639	-0.078849	-0.092641	-0.046846	-0.025982	-0.700091	0.712042
05320	-0.991030	-9.807281	-0.063496	-0.026812	0.235525	0.041892	-0.046730	-0.026115	-0.700239	0.711899
05321	-1.068320	-9.861975	-0.512368	0.035181	0.685701	0.096447	-0.046811	-0.026013	-0.700166	0.711968
05322	-1.093463	-9.697592	-0.530251	0.076658	0.707312	-0.065177	-0.047086	-0.025709	-0.699846	0.712277
05323	-0.926931	-9.439270	0.596216	-0.037390	-0.420842	-0.318690	-0.047486	-0.025263	-0.699756	0.712355
05324	-0.738923	-9.701089	1.151723	-0.237831	-0.980303	-0.067635	-0.047542	-0.025202	-0.700142	0.711973
05325	-0.896485	-10.074353	0.708115	-0.129935	-0.537614	0.311135	-0.047232	-0.025539	-0.700486	0.711644
05326	-1.000846	-9.989259	0.461046	-0.023615	-0.294764	0.232814	-0.046954	-0.025840	-0.700506	0.711631
05327	-0.922867	-9.747937	-0.130199	-0.089185	0.290927	-0.025026	-0.046752	-0.026045	-0.700472	0.711670
05328	-1.015421	-9.677938	-0.600415	0.000508	0.763640	-0.093073	-0.046605	-0.026174	-0.700382	0.711764
05329	-1.070390	-9.585223	-0.580968	0.065436	0.746143	-0.179477	-0.046628	-0.026141	-0.700312	0.711833
05330	-0.984905	-9.463552	-0.219722	0.000333	0.381211	-0.303124	-0.046788	-0.025976	-0.700402	0.711740
05331	-0.905813	-9.496171	0.344079	-0.069331	-0.189097	-0.269335	-0.046899	-0.025808	-0.700725	0.711420
05332	-0.909651	-9.733272	0.397216	-0.088017	-0.249410	-0.032510	-0.046913	-0.025768	-0.701187	0.710965
05333	-0.958924	-9.892320	0.237741	-0.058107	-0.097510	0.128196	-0.046870	-0.025768	-0.701494	0.710666
05334	-0.966811	-9.893263	0.161563	-0.051419	-0.025928	0.128849	-0.046848	-0.025754	-0.701534	0.710628
05335	-0.941366	-9.803825	0.254493	-0.064895	-0.119872	0.038574	-0.046801	-0.025749	-0.701452	0.710712
05336	-0.936159	-9.780394	0.195399	-0.068307	-0.059098	0.013936	-0.046715	-0.025784	-0.701386	0.710782
05337	-0.917433	-9.753278	0.109810	-0.085191	0.026994	-0.016148	-0.046597	-0.025842	-0.701356	0.710817
05338	-0.884732	-9.742977	-0.038065	-0.119167	0.174768	-0.031836	-0.046483	-0.025924	-0.701329	0.710848
05339	-0.915641	-9.707312	-0.083165	-0.085029	0.219880	-0.064782	-0.046379	-0.025973	-0.701368	0.710815
05340	-0.915291	-9.686866	-0.049156	-0.081838	0.183829	-0.084633	-0.046318	-0.025981	-0.701464	0.710724
05341	-0.932034	-9.714181	0.034148	-0.065297	0.097886	-0.054547	-0.046282	-0.025941	-0.701613	0.710580
05342	-0.921118	-9.754560	0.029368	-0.079402	0.099028	-0.015511	-0.046287	-0.025873	-0.701754	0.710444
05343	-0.924220	-9.778224	0.087018	-0.076402	0.038485	0.009130	-0.046285	-0.025787	-0.701852	0.710350
05344	-0.896545	-9.750355	0.069393	-0.100307	0.053223	-0.021613	-0.046261	-0.025732	-0.701907	0.710298
05345	-0.954258	-9.722217	0.074854	-0.039060	0.047554	-0.043658	-0.046202	-0.025753	-0.701938	0.710271
05346	-0.962600	-9.702516	0.038940	-0.028946	0.082931	-0.062856	-0.046151	-0.025757	-0.701948	0.710265
05347	-0.929333	-9.758857	0.047403	-0.066909	0.074154	-0.010075	-0.046121	-0.025742	-0.701950	0.710265
05348	-0.929671	-9.718016	0.119544	-0.060218	0.001897	-0.049758	-0.046102	-0.025696	-0.701934	0.710284
05349	-0.927966	-9.738580	0.083774	-0.063872	0.038173	-0.029919	-0.046100	-0.025644	-0.701927	0.710293
05350	-0.970518	-9.814511	0.150171	-0.027214	-0.026039	0.050764	-0.046069	-0.025627	-0.701909	0.710313
05351	-0.938656	-9.829868	0.231914	-0.058205	-0.107216	0.063865	-0.045957	-0.025705	-0.701846	0.710380
05352	-0.894294	-9.820907	0.324341	-0.099351	-0.199141	0.051675	-0.045874	-0.025779	-0.701798	0.710430
05353	-0.883565	-9.814821	0.131069	-0.112894	-0.005435	0.042048	-0.045801	-0.025802	-0.701785	0.710447
05354	-0.872432	-9.808797	-0.062363	-0.126541	0.188352	0.032415	-0.045755	-0.025791	-0.701751	0.710483
05355	-0.846021	-9.760353	-0.040589	-0.146879	0.166792	-0.018174	-0.045761	-0.025760	-0.701691	0.710544
05356	-0.845245	-9.760426	-0.039010	-0.147146	0.166943	-0.018181	-0.045775	-0.025691	-0.701631	0.710605
05357	-0.869054	-9.683042	0.060285	-0.112905	0.068229	-0.091433	-0.045764	-0.025654	-0.701625	0.710612
05358	-0.896637	-9.649681	0.182756	-0.079022	-0.054800	-0.120192	-0.045753	-0.025621	-0.701697	0.710543
05359	-0.921365	-9.698340	0.159580	-0.059052	-0.033082	-0.069608	-0.045753	-0.025567	-0.701811	0.710432
05360	-0.919643	-9.718954	0.120855	-0.062812	0.003279	-0.049775	-0.045756	-0.025499	-0.701891	0.710356
05361	-0.980586	-9.755391	0.114797	-0.005341	0.009463	-0.007471	-0.045757	-0.025479	-0.701927	0.710321
05362	-0.916982	-9.760028	0.046682	-0.070259	0.075919	-0.010112	-0.045756	-0.025464	-0.701918	0.710330
05363	-0.939161	-9.744096	0.037403	-0.046508	0.085838	-0.023852	-0.045718	-0.025484	-0.701900	0.710349
05364	-0.935274	-9.700083	0.012917	-0.046486	0.110391	-0.068347	-0.045699	-0.025521	-0.701874	0.710375
05365	-0.908922	-9.672028	-0.002052	-0.070306	0.125016	-0.099104	-0.045660	-0.025567	-0.701856	0.710394
05366	-0.944387	-9.680317	-0.021694	-0.036576	0.145848	-0.087552	-0.045636	-0.025624	-0.701847	0.710402
05367	-0.909924	-9.651532	0.033810	-0.067229	0.089027	-0.118941	-0.045629	-0.025662	-0.701870	0.710379
05368	-0.913798	-9.695551	0.057612	-0.067773	0.064785	-0.074450	-0.045645	-0.025675	-0.701921	0.710326
05369	-0.891168	-9.711540	0.065026	-0.091880	0.055004	-0.060716	-0.045655	-0.025665	-0.702017	0.710232
05370	-0.893930	-9.776066	0.051816	-0.095950	0.066970	0.003604	-0.045683	-0.025642	-0.702068	0.710180
05371	-0.893175	-9.796521	0.014869	-0.099660	0.103256	0.023431	-0.045708	-0.025641	-0.702075	0.710171
05372	-0.903093	-9.756278	0.015239	-0.086054	0.102431	-0.015603	-0.045743	-0.025623	-0.702089	0.710156
05373	-0.929454	-9.784344	0.029675	-0.062588	0.087967	0.015155	-0.045793	-0.025594	-0.702137	0.710107
05374	-0.916710	-9.760090	0.038509	-0.072906	0.077286	-0.010142	-0.045851	-0.025550	-0.702191	0.710051
05375	-0.903237	-9.756270	0.011122	-0.086679	0.102726	-0.015611	-0.045906	-0.025518	-0.702252	0.709988
05376	-0.845396	-9.763975	0.038723	-0.144850	0.072324	-0.013443	-0.045964	-0.025495	-0.702312	0.709926
05377	-0.823957	-9.759513	0.082538	-0.165410	0.026333	-0.019538	-0.046035	-0.025484	-0.702370	0.709865
05378	-0.847182	-9.743485	0.071376	-0.141744	0.036344	-0.033276	-0.046079	-0.025497	-0.702422	0.709810
05379	-0.887487	-9.775374	0.110675	-0.104676	-0.003484	0.002956	-0.046106	-0.025513	-0.702489	0.709742
05380	-0.874561	-9.771497	0.083399	-0.118533	0.022037	-0.002518	-0.046134	-0.025557	-0.702525	0.709702
05381	-0.932586	-9.784076	0.017261	-0.064358	0.088886	0.015136	-0.046177	-0.025576	-0.702529	0.709695
05382	-0.946762	-9.787853	0.043048	-0.051024	0.063676	0.020605	-0.046245	-0.025572	-0.702509	0.709711
05383	-0.921826	-9.739312	0.064214	-0.071293	0.042069	-0.029987	-0.046317	-0.025562	-0.702486	0.709729
05384	-0.971290	-9.751330	0.070514	-0.023984	0.037571	-0.012951	-0.046387	-0.025538	-0.702467	0.709743
05385	-0.993974	-9.755646	0.025630	-0.003798	0.083726	-0.006860	-0.046480	-0.025543	-0.702428	0.709776
05386	-0.941548	-9.719822	-0.040002	-0.054915	0.149127	-0.048580	-0.046566	-0.025524	-0.702374	0.709824
05387	-0.929487	-9.695518	-0.028047	-0.065130	0.138358	-0.073878	-0.046641	-0.025522	-0.702301	0.709892
05388	-0.872184	-9.703225	0.002914	-0.123284	0.107923	-0.071720	-0.046737	-0.025494	-0.702248	0.709939
05389	-0.877184	-9.726815	0.064261	-0.120176	0.047393	-0.047043	-0.046833	-0.025449	-0.702263	0.709920
05390	-0.833252	-9.738370	0.118316	-0.164714	-0.008410	-0.039410	-0.046905	-0.025446	-0.702312	0.709867
05391	-0.873093	-9.790615	0.122118	-0.131212	-0.011998	0.016655	-0.046946	-0.025469	-0.702343	0.709832
05392	-0.940778	-9.762941	0.056987	-0.063276	0.053990	-0.004711	-0.046984	-0.025473	-0.702344	0.709829
05393	-0.928442	-9.738660	0.067688	-0.073485	0.043212	-0.030008	-0.047043	-0.025474	-0.702307	0.709861
05394	-0.960864	-9.702737	0.023863	-0.039512	0.088479	-0.062942	-0.047094	-0.025495	-0.702269	0.709895
05395	-0.960877	-9.723083	-0.011486	-0.043272	0.124760	-0.043127	-0.047148	-0.025502	-0.702246	0.709914
05396	-0.962245	-9.702597	0.025181	-0.039952	0.088707	-0.062946	-0.047221	-0.025500	-0.702214	0.709940
05397	-0.904253	-9.730750	0.019053	-0.101592	0.094374	-0.040978	-0.047285	-0.025505	-0.702193	0.709957
05398	-0.901410	-9.686607	-0.005160	-0.101579	0.118907	-0.085485	-0.047334	-0.025546	-0.702153	0.709992
05399	-0.869966	-9.742794	0.004792	-0.139578	0.110066	-0.032743	-0.047352	-0.025610	-0.702088	0.710052
05400	-0.907680	-9.710051	0.058687	-0.098706	0.058540	-0.060803	-0.047363	-0.025685	-0.702020	0.710117
05401	-0.913701	-9.713128	0.156663	-0.091969	-0.038189	-0.055929	-0.047377	-0.025751	-0.702002	0.710131
05402	-0.940749	-9.741090	0.171804	-0.068579	-0.052527	-0.025150	-0.047363	-0.025816	-0.702025	0.710107
05403	-0.932183	-9.760880	0.205952	-0.079048	-0.087691	-0.005944	-0.047311	-0.025918	-0.702066	0.710065
05404	-0.931298	-9.801729	0.132023	-0.086510	-0.015116	0.033679	-0.047197	-0.026079	-0.702142	0.709992
05405	-0.972667	-9.825122	-0.261413	-0.056837	0.378409	0.056508	-0.047195	-0.026116	-0.702126	0.710007
05406	-1.004073	-9.822059	-0.807337	-0.037565	0.929396	0.049747	-0.047368	-0.025934	-0.701821	0.710303
05407	-1.027978	-9.619528	-0.578830	0.011681	0.710276	-0.147157	-0.047754	-0.025543	-0.701348	0.710759
05408	-0.809043	-9.333467	0.652269	-0.147809	-0.521591	-0.437203	-0.048182	-0.025082	-0.701295	0.710799
05409	-0.684512	-9.754628	0.819312	-0.310634	-0.689954	-0.029024	-0.048148	-0.025125	-0.701583	0.710516
05410	-0.879611	-10.010764	0.574963	-0.149798	-0.442846	0.242219	-0.047892	-0.025440	-0.701648	0.710457
05411	-0.934176	-9.766072	0.482249	-0.073485	-0.351805	0.003231	-0.047686	-0.025709	-0.701584	0.710525
05412	-0.931551	-9.688249	-0.204223	-0.084682	0.334827	-0.083741	-0.047519	-0.025944	-0.701537	0.710573
05413	-1.031887	-9.684081	-0.587507	0.006288	0.722822	-0.082894	-0.047488	-0.026033	-0.701384	0.710724
05414	-1.043395	-9.603040	-0.510313	0.027156	0.649591	-0.161534	-0.047671	-0.025867	-0.701202	0.710897
05415	-0.945639	-9.545520	-0.012986	-0.053290	0.153117	-0.221803	-0.047913	-0.025641	-0.701119	0.710970
05416	-0.932903	-9.634145	0.347482	-0.067060	-0.206616	-0.129681	-0.048068	-0.025502	-0.701229	0.710857
05417	-0.969202	-9.835288	0.361895	-0.051658	-0.221703	0.074243	-0.048115	-0.025478	-0.701412	0.710674
05418	-0.991864	-9.986306	0.158378	-0.050069	-0.018749	0.223862	-0.048110	-0.025519	-0.701431	0.710654
05419	-0.949171	-9.890007	0.130500	-0.083628	0.009293	0.123263	-0.048117	-0.025544	-0.701237	0.710844
05420	-0.883651	-9.809714	0.115782	-0.141188	0.027505	0.036375	-0.048083	-0.025588	-0.700992	0.711086
05421	-0.879576	-9.765695	0.096855	-0.141093	0.051954	-0.008136	-0.048000	-0.025653	-0.700783	0.711295
05422	-0.835449	-9.690064	0.035451	-0.178375	0.116271	-0.088941	-0.047909	-0.025726	-0.700625	0.711454
05423	-0.888337	-9.659019	-0.051666	-0.124093	0.207603	-0.115783	-0.047818	-0.025768	-0.700531	0.711551
05424	-0.910066	-9.643119	-0.059692	-0.100440	0.217663	-0.129503	-0.047773	-0.025771	-0.700502	0.711583
05425	-0.971658	-9.658869	-0.028284	-0.039410	0.187862	-0.106925	-0.047766	-0.025722	-0.700541	0.711547
05426	-0.956309	-9.742276	0.065975	-0.060480	0.093165	-0.023996	-0.047792	-0.025643	-0.700603	0.711487
05427	-0.958868	-9.786361	0.089375	-0.060927	0.068884	0.020513	-0.047815	-0.025531	-0.700660	0.711433
05428	-0.985453	-9.773333	0.175726	-0.030228	-0.017834	0.011711	-0.047825	-0.025475	-0.700677	0.711418
05429	-0.935005	-9.781979	0.133865	-0.081626	0.022991	0.014422	-0.047816	-0.025446	-0.700654	0.711442
05430	-0.917647	-9.713812	0.119768	-0.091609	0.036628	-0.055391	-0.047758	-0.025456	-0.700616	0.711483
05431	-0.898967	-9.686776	0.033950	-0.108832	0.122611	-0.085609	-0.047684	-0.025505	-0.700576	0.711526
05432	-0.885664	-9.662540	0.045152	-0.119084	0.111880	-0.110913	-0.047612	-0.025564	-0.700534	0.711570
05433	-0.873062	-9.617730	0.091511	-0.125582	0.064857	-0.156012	-0.047559	-0.025586	-0.700553	0.711554
05434	-0.935921	-9.612916	0.158154	-0.060945	-0.001054	-0.153215	-0.047553	-0.025601	-0.700592	0.711516
05435	-0.929460	-9.697202	0.180412	-0.075306	-0.024370	-0.069694	-0.047512	-0.025602	-0.700703	0.711408
05436	-1.004097	-9.737333	0.198939	-0.004350	-0.043173	-0.021796	-0.047405	-0.025677	-0.700785	0.711332
05437	-0.977141	-9.775976	0.338861	-0.031606	-0.185044	0.016051	-0.047282	-0.025774	-0.700832	0.711291
05438	-0.948121	-9.809691	0.214378	-0.066540	-0.061815	0.044629	-0.047182	-0.025867	-0.700853	0.711273
05439	-0.968647	-9.768305	-0.024843	-0.046738	0.177001	0.001851	-0.047119	-0.025897	-0.700844	0.711285
05440	-0.962674	-9.765505	-0.120375	-0.054105	0.273940	-0.003082	-0.047095	-0.025896	-0.700738	0.711391
05441	-0.949377	-9.741312	-0.107042	-0.064275	0.263129	-0.028385	-0.047099	-0.025878	-0.700613	0.711515
05442	-0.928705	-9.695624	0.013483	-0.077394	0.144722	-0.074060	-0.047095	-0.025866	-0.700510	0.711617
05443	-0.912458	-9.673274	0.193065	-0.086994	-0.034340	-0.095006	-0.047080	-0.025845	-0.700528	0.711601
05444	-0.928318	-9.741610	0.206431	-0.077536	-0.047650	-0.025192	-0.047082	-0.025811	-0.700609	0.711522
05445	-0.962410	-9.770593	0.148458	-0.047515	0.009452	0.006193	-0.047082	-0.025801	-0.700675	0.711457
05446	-0.993683	-9.735006	0.102117	-0.013618	0.054789	-0.026729	-0.047054	-0.025818	-0.700702	0.711433
05447	-1.006060	-9.759336	0.091289	-0.003822	0.065757	-0.001429	-0.046994	-0.025863	-0.700705	0.711432
05448	-1.029437	-9.722824	0.117282	0.023532	0.039637	-0.034923	-0.046945	-0.025951	-0.700712	0.711425
05449	-0.945209	-9.702447	0.130925	-0.058089	0.023372	-0.063630	-0.046859	-0.026041	-0.700727	0.711413
05450	-0.922051	-9.738947	0.103988	-0.085965	0.049805	-0.030141	-0.046761	-0.026204	-0.700740	0.711400
05451	-0.945272	-9.722925	0.094400	-0.062231	0.059812	-0.043846	-0.046662	-0.026359	-0.700702	0.711438
05452	-0.932372	-9.719123	0.070024	-0.076169	0.085282	-0.049363	-0.046552	-0.026550	-0.700626	0.711514
05453	-0.933162	-9.719033	0.072014	-0.076347	0.085360	-0.049365	-0.046464	-0.026706	-0.700537	0.711601
05454	-0.933850	-9.718952	0.073992	-0.076607	0.085515	-0.049368	-0.046395	-0.026840	-0.700462	0.711674
05455	-0.899100	-9.710557	0.095495	-0.110663	0.064750	-0.060971	-0.046330	-0.026956	-0.700409	0.711726
05456	-0.943675	-9.699191	0.041039	-0.066818	0.120999	-0.068592	-0.046280	-0.027040	-0.700380	0.711754
05457	-0.934128	-9.739411	0.040878	-0.080945	0.122035	-0.029592	-0.046229	-0.027130	-0.700365	0.711770
05458	-1.006728	-9.714867	0.072384	-0.006012	0.091460	-0.045959	-0.046198	-0.027173	-0.700391	0.711744
05459	-1.007708	-9.694281	0.106946	-0.002463	0.055331	-0.065743	-0.046174	-0.027221	-0.700453	0.711683
05460	-1.001903	-9.778488	0.129281	-0.016934	0.032102	0.017777	-0.046172	-0.027249	-0.700537	0.711599
05461	-0.953070	-9.766480	0.121240	-0.064670	0.036640	0.000653	-0.046175	-0.027270	-0.700619	0.711518
05462	-1.003103	-9.757953	0.160657	-0.013636	-0.003866	-0.002006	-0.046176	-0.027290	-0.700681	0.711455
05463	-0.988663	-9.774806	0.097436	-0.031239	0.057738	0.012254	-0.046175	-0.027328	-0.700725	0.711411
05464	-0.988976	-9.774784	0.096471	-0.031499	0.057897	0.012252	-0.046177	-0.027365	-0.700739	0.711395
05465	-0.998000	-9.755080	0.060702	-0.021466	0.093227	-0.006969	-0.046174	-0.027383	-0.700744	0.711390
05466	-1.020889	-9.739071	0.051124	0.002183	0.103338	-0.020667	-0.046220	-0.027403	-0.700717	0.711413
05467	-0.994959	-9.711024	0.036262	-0.021646	0.117810	-0.051494	-0.046268	-0.027394	-0.700702	0.711425
05468	-0.952208	-9.701804	0.127848	-0.062233	0.025634	-0.063661	-0.046330	-0.027389	-0.700693	0.711430
05469	-0.951875	-9.722307	0.091625	-0.066158	0.061921	-0.043885	-0.046388	-0.027395	-0.700711	0.711408
05470	-0.919208	-9.672836	0.182702	-0.092772	-0.031219	-0.095049	-0.046435	-0.027421	-0.700748	0.711368
05471	-0.919092	-9.693332	0.145591	-0.096696	0.005077	-0.075274	-0.046467	-0.027466	-0.700783	0.711329
05472	-0.917953	-9.734376	0.072271	-0.104463	0.077658	-0.035725	-0.046492	-0.027504	-0.700837	0.711273
05473	-1.002183	-9.775122	0.020691	-0.026994	0.130394	0.012794	-0.046536	-0.027559	-0.700852	0.711254
05474	-1.026720	-9.738482	0.046488	0.000410	0.104300	-0.020677	-0.046611	-0.027568	-0.700857	0.711243
05475	-0.990350	-9.771211	-0.005661	-0.041143	0.155930	0.007261	-0.046684	-0.027559	-0.700862	0.711234
05476	-0.971203	-9.725527	0.111665	-0.054022	0.037486	-0.038372	-0.046773	-0.027519	-0.700872	0.711220
05477	-0.912954	-9.753751	0.105009	-0.115722	0.042938	-0.016518	-0.046850	-0.027501	-0.700888	0.711200
05478	-0.891915	-9.749168	0.150004	-0.136119	-0.003085	-0.022603	-0.046914	-0.027492	-0.700913	0.711171
05479	-0.878850	-9.745397	0.123725	-0.150006	0.022290	-0.028136	-0.046959	-0.027514	-0.700925	0.711156
05480	-0.977566	-9.769288	0.134617	-0.055151	0.013634	0.006148	-0.047002	-0.027541	-0.700920	0.711157
05481	-0.951103	-9.761747	0.083810	-0.082752	0.064298	-0.004918	-0.047037	-0.027601	-0.700879	0.711193
05482	-0.984547	-9.705357	0.076030	-0.045135	0.073468	-0.057605	-0.047055	-0.027687	-0.700809	0.711257
05483	-1.069038	-9.745985	0.027054	0.032304	0.126261	-0.009075	-0.047066	-0.027768	-0.700753	0.711308
05484	-1.043559	-9.717911	0.013170	0.008391	0.140788	-0.039914	-0.047118	-0.027801	-0.700692	0.711364
05485	-1.045313	-9.697264	0.050486	0.011992	0.104649	-0.059684	-0.047172	-0.027814	-0.700643	0.711407
05486	-0.988198	-9.704946	0.080983	-0.046012	0.073939	-0.057613	-0.047243	-0.027812	-0.700631	0.711415
05487	-0.953647	-9.696628	0.100800	-0.080024	0.053126	-0.069230	-0.047310	-0.027816	-0.700651	0.711390
05488	-0.955302	-9.676014	0.135602	-0.076490	0.017067	-0.089000	-0.047384	-0.027807	-0.700706	0.711332
05489	-0.947236	-9.695683	0.169234	-0.086853	-0.018111	-0.069777	-0.047455	-0.027812	-0.700767	0.711266
05490	-0.911855	-9.707945	0.151723	-0.124735	-0.002646	-0.061630	-0.047505	-0.027839	-0.700812	0.711218
05491	-0.911637	-9.728432	0.114772	-0.128710	0.033643	-0.041866	-0.047532	-0.027866	-0.700827	0.711200
05492	-0.970237	-9.720551	0.085152	-0.071234	0.064685	-0.043938	-0.047582	-0.027907	-0.700787	0.711234
05493	-0.983025	-9.765237	0.039939	-0.065293	0.111919	0.001129	-0.047604	-0.027960	-0.700734	0.711284
05494	-1.032846	-9.777064	0.046925	-0.018001	0.107709	0.018285	-0.047616	-0.028023	-0.700669	0.711344
05495	-1.019925	-9.773281	0.023106	-0.031914	0.133070	0.012743	-0.047630	-0.028082	-0.700588	0.711420
05496	-0.995197	-9.724692	0.046006	-0.052018	0.111361	-0.037869	-0.047661	-0.028137	-0.700493	0.711510
05497	-1.010729	-9.707694	0.109703	-0.034662	0.049943	-0.052092	-0.047685	-0.028190	-0.700420	0.711578
05498	-0.983075	-9.681595	0.263416	-0.057553	-0.103791	-0.078469	-0.047672	-0.028281	-0.700424	0.711572
05499	-0.951839	-9.737834	0.271398	-0.095609	-0.112741	-0.025797	-0.047586	-0.028452	-0.700489	0.711507
05500	-0.994132	-9.827162	-0.133349	-0.071999	0.292915	0.060924	-0.047512	-0.028625	-0.700492	0.711502
05501	-1.081789	-9.776996	-0.638864	0.010125	0.802394	0.011982	-0.047599	-0.028610	-0.700254	0.711730
05502	-1.115514	-9.613745	-0.723780	0.058391	0.895507	-0.148994	-0.047906	-0.028345	-0.699773	0.712193
05503	-0.950277	-9.332691	0.418521	-0.054426	-0.245100	-0.425768	-0.048407	-0.027879	-0.699586	0.712362
05504	-0.802597	-9.664928	0.851619	-0.228504	-0.676213	-0.103373	-0.048560	-0.027779	-0.699813	0.712132
05505	-1.028009	-9.972820	0.683179	-0.042094	-0.502968	0.223543	-0.048379	-0.028043	-0.699945	0.712004
05506	-1.032778	-9.803517	0.702661	-0.020171	-0.527541	0.055981	-0.048247	-0.028261	-0.699979	0.711971
05507	-1.020017	-9.705052	-0.048918	-0.037931	0.219401	-0.056597	-0.048089	-0.028460	-0.700113	0.711842
05508	-1.099228	-9.801184	-0.642183	0.018196	0.814251	0.037215	-0.048047	-0.028589	-0.700065	0.711887
05509	-1.073893	-9.626413	-0.500229	0.013775	0.671911	-0.136963	-0.048224	-0.028448	-0.699906	0.712037
05510	-1.012085	-9.511311	-0.012145	-0.026370	0.184122	-0.249481	-0.048466	-0.028232	-0.699841	0.712093
05511	-0.996226	-9.556775	0.490458	-0.037181	-0.319544	-0.196998	-0.048596	-0.028117	-0.700035	0.711898
05512	-1.004908	-9.771285	0.414852	-0.053548	-0.247480	0.015631	-0.048616	-0.028128	-0.700358	0.711579
05513	-1.088623	-9.958875	0.203228	0.004308	-0.037789	0.207500	-0.048602	-0.028222	-0.700489	0.711447
05514	-1.018523	-9.855393	0.121285	-0.056754	0.040596	0.095693	-0.048615	-0.028261	-0.700391	0.711541
05515	-0.975458	-9.759240	0.095132	-0.090236	0.068365	-0.005011	-0.048622	-0.028286	-0.700197	0.711731
05516	-0.972584	-9.694643	0.110343	-0.086392	0.056623	-0.069304	-0.048614	-0.028339	-0.700062	0.711861
05517	-0.955199	-9.647015	0.062208	-0.100077	0.106280	-0.119398	-0.048603	-0.028396	-0.699995	0.711926
05518	-0.920328	-9.638770	0.082702	-0.134131	0.085478	-0.131033	-0.048589	-0.028460	-0.700018	0.711902
05519	-0.999965	-9.635464	0.005494	-0.056578	0.162743	-0.127005	-0.048584	-0.028485	-0.700105	0.711815
05520	-1.017979	-9.683020	0.053188	-0.043331	0.113324	-0.076914	-0.048614	-0.028496	-0.700228	0.711692
05521	-1.057567	-9.735138	0.054616	-0.009973	0.110060	-0.020746	-0.048652	-0.028477	-0.700355	0.711565
05522	-1.025455	-9.791494	0.060627	-0.048141	0.101160	0.031907	-0.048684	-0.028459	-0.700450	0.711470
05523	-1.039863	-9.774641	0.120108	-0.030698	0.039760	0.017716	-0.048688	-0.028438	-0.700500	0.711422
05524	-1.012244	-9.767328	0.067665	-0.058481	0.090440	0.006596	-0.048727	-0.028424	-0.700530	0.711390
05525	-0.986541	-9.718891	0.087280	-0.078444	0.068599	-0.044020	-0.048737	-0.028411	-0.700570	0.711350
05526	-1.018479	-9.662579	0.076596	-0.040795	0.077823	-0.096675	-0.048750	-0.028402	-0.700635	0.711286
05527	-0.995691	-9.678694	0.083763	-0.064879	0.067889	-0.083005	-0.048777	-0.028356	-0.700752	0.711171
05528	-1.005044	-9.638470	0.081104	-0.051125	0.067100	-0.121987	-0.048828	-0.028307	-0.700870	0.711052
05529	-0.959636	-9.670681	0.096997	-0.099099	0.047149	-0.094645	-0.048875	-0.028222	-0.701009	0.710916
05530	-1.013892	-9.685652	0.195637	-0.044284	-0.053714	-0.072397	-0.048915	-0.028155	-0.701147	0.710780
05531	-0.981169	-9.742140	0.200957	-0.082377	-0.062708	-0.019749	-0.048927	-0.028117	-0.701275	0.710654
05532	-1.014261	-9.791317	0.105342	-0.056634	0.030866	0.031374	-0.048899	-0.028141	-0.701393	0.710539
05533	-1.046554	-9.822409	0.215065	-0.025620	-0.080072	0.067302	-0.048822	-0.028229	-0.701437	0.710497
05534	-1.007271	-9.770283	0.208760	-0.059405	-0.076590	0.011121	-0.048769	-0.028305	-0.701487	0.710448
05535	-1.009095	-9.767812	0.038704	-0.060901	0.091728	0.006569	-0.048740	-0.028330	-0.701554	0.710383
05536	-0.985229	-9.716896	-0.109885	-0.082247	0.238183	-0.048604	-0.048762	-0.028327	-0.701562	0.710374
05537	-1.020186	-9.725056	-0.129523	-0.048670	0.259261	-0.036968	-0.048793	-0.028260	-0.701511	0.710425
05538	-0.986208	-9.676102	-0.036230	-0.074903	0.165991	-0.088095	-0.048842	-0.028196	-0.701476	0.710459
05539	-1.028760	-9.646514	0.112415	-0.025945	0.017895	-0.110871	-0.048866	-0.028141	-0.701521	0.710414
05540	-1.010651	-9.686282	0.180655	-0.046433	-0.052494	-0.072400	-0.048911	-0.028069	-0.701645	0.710291
05541	-1.012301	-9.771304	0.130016	-0.054673	-0.004286	0.011621	-0.048942	-0.028016	-0.701768	0.710170
05542	-1.047068	-9.779509	0.107150	-0.021168	0.016875	0.023262	-0.048968	-0.027965	-0.701839	0.710100
05543	-0.987764	-9.807969	0.099313	-0.082924	0.022143	0.045022	-0.048951	-0.027951	-0.701878	0.710063
05544	-1.067347	-9.784002	0.058797	-0.001635	0.063369	0.029333	-0.048914	-0.027950	-0.701904	0.710040
05545	-1.013536	-9.728118	0.027965	-0.049121	0.091992	-0.032430	-0.048877	-0.027949	-0.701908	0.710039
05546	-1.031337	-9.668044	-0.006767	-0.025246	0.126485	-0.090643	-0.048851	-0.027951	-0.701910	0.710038
05547	-0.996375	-9.639589	0.048655	-0.055269	0.069344	-0.122025	-0.048825	-0.027942	-0.701955	0.709996
05548	-0.986921	-9.659547	0.082032	-0.065633	0.034225	-0.102790	-0.048799	-0.027929	-0.702042	0.709912
05549	-0.999017	-9.683833	0.068827	-0.055955	0.045287	-0.077482	-0.048785	-0.027910	-0.702148	0.709809
05550	-1.001433	-9.748381	0.054901	-0.060387	0.057365	-0.013204	-0.048786	-0.027875	-0.702230	0.709729
05551	-1.006390	-9.664107	0.028829	-0.046298	0.080804	-0.096724	-0.048788	-0.027832	-0.702293	0.709669
05552	-0.946792	-9.692534	0.020706	-0.108138	0.086122	-0.074980	-0.048767	-0.027799	-0.702363	0.709603
05553	-1.021678	-9.732563	0.039476	-0.037130	0.067730	-0.026871	-0.048752	-0.027803	-0.702414	0.709553
05554	-0.984177	-9.765193	-0.013660	-0.079020	0.119303	0.000941	-0.048760	-0.027795	-0.702437	0.709529
05555	-1.028874	-9.733060	-0.033968	-0.031422	0.139469	-0.026383	-0.048751	-0.027791	-0.702475	0.709493
05556	-1.065738	-9.700512	0.016834	0.009946	0.088218	-0.054197	-0.048777	-0.027758	-0.702516	0.709452
05557	-1.034138	-9.736566	0.059856	-0.024230	0.042977	-0.021298	-0.048815	-0.027707	-0.702608	0.709360
05558	-1.016193	-9.776513	0.127286	-0.044675	-0.027421	0.017180	-0.048850	-0.027651	-0.702733	0.709235
05559	-1.001858	-9.772755	0.097878	-0.058664	-0.002105	0.011599	-0.048878	-0.027587	-0.702880	0.709091
05560	-1.002234	-9.752558	0.130161	-0.054972	-0.038165	-0.008131	-0.048913	-0.027531	-0.703006	0.708966
05561	-0.950639	-9.781264	0.049195	-0.110610	0.038550	0.014090	-0.048920	-0.027480	-0.703116	0.708858
05562	-1.007741	-9.773329	0.016807	-0.053244	0.069792	0.012081	-0.048937	-0.027439	-0.703186	0.708789
05563	-1.016651	-9.733158	0.015244	-0.039384	0.068939	-0.026888	-0.048944	-0.027365	-0.703291	0.708688
05564	-1.001188	-9.749583	-0.048887	-0.057416	0.130545	-0.012749	-0.048959	-0.027336	-0.703357	0.708622
05565	-1.010457	-9.709363	-0.049812	-0.043560	0.129689	-0.051718	-0.048968	-0.027303	-0.703418	0.708561
05566	-1.023763	-9.713322	-0.025733	-0.030018	0.104620	-0.046136	-0.048993	-0.027269	-0.703460	0.708520
05567	-0.985025	-9.640877	0.004568	-0.059733	0.071727	-0.122069	-0.049020	-0.027216	-0.703513	0.708467
05568	-0.913838	-9.624809	0.043110	-0.127456	0.029787	-0.145383	-0.049029	-0.027170	-0.703587	0.708395
05569	-0.938840	-9.673188	0.019786	-0.107959	0.051860	-0.094764	-0.049023	-0.027166	-0.703666	0.708317
05570	-0.973758	-9.681288	-0.002612	-0.074493	0.073066	-0.083111	-0.049020	-0.027157	-0.703740	0.708244
05571	-0.986103	-9.705485	-0.015380	-0.064845	0.084145	-0.057802	-0.049004	-0.027155	-0.703817	0.708169
05572	-1.003534	-9.753679	0.032407	-0.051532	0.034793	-0.007662	-0.048994	-0.027171	-0.703903	0.708083
05573	-1.023822	-9.777987	-0.052020	-0.035793	0.117371	0.018126	-0.048991	-0.027161	-0.703988	0.707999
05574	-1.041136	-9.826212	-0.004094	-0.022482	0.068024	0.068268	-0.048996	-0.027141	-0.704055	0.707934
05575	-1.037663	-9.761861	0.005459	-0.018447	0.056180	0.003992	-0.049000	-0.027112	-0.704129	0.707860
05576	-1.010744	-9.733777	-0.011773	-0.042363	0.070561	-0.026912	-0.049000	-0.027105	-0.704212	0.707779
05577	-0.987798	-9.749926	-0.004458	-0.066439	0.060575	-0.013262	-0.048994	-0.027085	-0.704287	0.707705
05578	-0.961811	-9.701688	0.014474	-0.086362	0.038730	-0.063888	-0.049015	-0.027047	-0.704373	0.707619
05579	-0.974938	-9.705757	0.037447	-0.072730	0.013597	-0.058296	-0.049037	-0.026982	-0.704470	0.707524
05580	-0.961448	-9.681702	0.045480	-0.082818	0.002750	-0.083610	-0.049051	-0.026933	-0.704557	0.707437
05581	-1.008840	-9.713938	0.012296	-0.039465	0.034902	-0.046638	-0.049055	-0.026905	-0.704633	0.707363
05582	-1.029861	-9.717993	-0.034960	-0.019843	0.081349	-0.040573	-0.049056	-0.026886	-0.704658	0.707339
05583	-1.019638	-9.758285	-0.036636	-0.034097	0.082362	-0.001613	-0.049038	-0.026889	-0.704668	0.707330
05584	-1.055557	-9.746237	-0.020858	0.003352	0.067378	-0.009667	-0.049018	-0.026907	-0.704663	0.707335
05585	-1.005090	-9.754341	-0.062349	-0.048383	0.107817	-0.007214	-0.048994	-0.026900	-0.704655	0.707345
05586	-1.017379	-9.778526	-0.072948	-0.038831	0.118982	0.018095	-0.048994	-0.026899	-0.704650	0.707350
05587	-1.042570	-9.702125	0.025745	-0.003103	0.020482	-0.054695	-0.048979	-0.026893	-0.704672	0.707330
05588	-0.954149	-9.726391	0.134889	-0.090880	-0.092101	-0.039534	-0.048910	-0.026957	-0.704755	0.707249
05589	-0.954594	-9.742397	-0.072595	-0.096844	0.112415	-0.024490	-0.048821	-0.027046	-0.704879	0.707129
05590	-1.009497	-9.810502	-0.417446	-0.057382	0.456841	0.047703	-0.048854	-0.026992	-0.704882	0.707125
05591	-1.038723	-9.741997	-0.856075	-0.031012	0.899236	-0.019387	-0.049041	-0.026769	-0.704647	0.707355
05592	-1.027361	-9.501146	-0.200949	-0.001091	0.250229	-0.257322	-0.049430	-0.026353	-0.704415	0.707575
05593	-0.772836	-9.529431	0.770533	-0.232428	-0.726520	-0.251348	-0.049681	-0.026064	-0.704608	0.707375
05594	-0.854696	-9.928266	0.555870	-0.198660	-0.515792	0.152474	-0.049559	-0.026184	-0.704917	0.707072
05595	-1.041113	-9.928409	0.450946	-0.016282	-0.411166	0.171863	-0.049387	-0.026382	-0.704953	0.707040
05596	-0.934539	-9.747052	0.233624	-0.108692	-0.197972	-0.020754	-0.049202	-0.026588	-0.704989	0.707009
05597	-1.051232	-9.798434	-0.476496	-0.015356	0.514023	0.040078	-0.048995	-0.026791	-0.704997	0.707008
05598	-1.122946	-9.721753	-0.803295	0.056362	0.844665	-0.029941	-0.049003	-0.026807	-0.704816	0.707188
05599	-1.023536	-9.577453	-0.519995	-0.020694	0.564113	-0.183203	-0.049198	-0.026619	-0.704612	0.707384
05600	-0.972263	-9.517426	0.091151	-0.050812	-0.044963	-0.245536	-0.049377	-0.026446	-0.704589	0.707402
05601	-0.974310	-9.654484	0.401251	-0.055812	-0.357427	-0.107613	-0.049423	-0.026408	-0.704823	0.707167
05602	-1.025350	-9.875859	0.231441	-0.033269	-0.192577	0.117030	-0.049393	-0.026482	-0.705063	0.706927
05603	-1.008917	-9.932025	0.093307	-0.059447	-0.058634	0.170537	-0.049356	-0.026547	-0.705085	0.706905
05604	-0.998291	-9.779015	0.057721	-0.054964	-0.021889	0.017142	-0.049338	-0.026596	-0.704947	0.707042
05605	-0.953072	-9.722542	-0.039464	-0.096484	0.078049	-0.044253	-0.049302	-0.026635	-0.704791	0.707198
05606	-0.939133	-9.718531	-0.061412	-0.110604	0.103401	-0.049867	-0.049263	-0.026683	-0.704674	0.707316
05607	-0.955284	-9.698412	-0.165415	-0.094802	0.210282	-0.068668	-0.049208	-0.026718	-0.704601	0.707392
05608	-0.976296	-9.702496	-0.209790	-0.075252	0.256753	-0.062610	-0.049176	-0.026740	-0.704560	0.707433
05609	-1.018184	-9.694534	-0.096621	-0.029816	0.145031	-0.065478	-0.049168	-0.026728	-0.704568	0.707426
05610	-1.044223	-9.722752	-0.082593	-0.006433	0.131021	-0.034553	-0.049195	-0.026689	-0.704615	0.707379
05611	-1.026113	-9.763073	-0.013995	-0.026672	0.060521	0.003948	-0.049229	-0.026611	-0.704684	0.707311
05612	-1.040489	-9.747065	0.046191	-0.009007	-0.000734	-0.010139	-0.049281	-0.026570	-0.704724	0.707269
05613	-0.978679	-9.710848	0.050336	-0.066522	-0.007625	-0.052748	-0.049302	-0.026555	-0.704767	0.707226
05614	-0.951085	-9.702756	-0.001837	-0.094509	0.042913	-0.063981	-0.049311	-0.026561	-0.704794	0.707197
05615	-0.947161	-9.658462	-0.026970	-0.094465	0.067256	-0.108550	-0.049311	-0.026580	-0.704807	0.707184
05616	-0.985113	-9.730896	-0.059301	-0.065370	0.100504	-0.032609	-0.049293	-0.026585	-0.704806	0.707186
05617	-0.972222	-9.706777	-0.048268	-0.075352	0.089551	-0.057926	-0.049286	-0.026613	-0.704771	0.707220
05618	-0.985998	-9.710831	-0.022002	-0.061751	0.064519	-0.052311	-0.049316	-0.026597	-0.704744	0.707246
05619	-0.979966	-9.795375	0.001641	-0.076269	0.041269	0.031204	-0.049323	-0.026585	-0.704742	0.707248
05620	-1.017170	-9.763255	0.053796	-0.034698	-0.009874	0.003492	-0.049330	-0.026595	-0.704736	0.707253
05621	-1.042538	-9.811543	0.032348	-0.015327	0.012290	0.054122	-0.049327	-0.026606	-0.704738	0.707250
05622	-1.018862	-9.847739	0.005999	-0.043564	0.038562	0.087448	-0.049276	-0.026669	-0.704704	0.707286
05623	-1.015618	-9.767393	0.222907	-0.033291	-0.177750	0.008231	-0.049240	-0.026746	-0.704674	0.707315
05624	-0.960820	-9.751169	0.120899	-0.089042	-0.076857	-0.014256	-0.049221	-0.026799	-0.704680	0.707308
05625	-0.978686	-9.726848	-0.153844	-0.075392	0.198247	-0.037817	-0.049213	-0.026800	-0.704665	0.707324
05626	-0.968572	-9.678526	-0.273323	-0.083410	0.319359	-0.087578	-0.049266	-0.026788	-0.704536	0.707449
05627	-0.993196	-9.622306	-0.207103	-0.051524	0.257118	-0.140596	-0.049310	-0.026727	-0.704408	0.707576
05628	-1.014973	-9.590181	-0.010029	-0.021722	0.062951	-0.169171	-0.049356	-0.026689	-0.704365	0.707617
05629	-1.000194	-9.694820	0.048317	-0.046250	0.004405	-0.066401	-0.049380	-0.026663	-0.704419	0.707562
05630	-0.989189	-9.755194	0.009368	-0.064730	0.041709	-0.007767	-0.049430	-0.026630	-0.704481	0.707499
05631	-0.939008	-9.763223	-0.032765	-0.116562	0.082032	-0.005394	-0.049470	-0.026590	-0.704460	0.707518
05632	-0.976443	-9.731048	0.020189	-0.074953	0.030907	-0.033088	-0.049511	-0.026592	-0.704413	0.707562
05633	-0.967705	-9.751164	0.056061	-0.085142	-0.004310	-0.013834	-0.049483	-0.026610	-0.704397	0.707579
05634	-1.003122	-9.759206	0.036375	-0.051760	0.017015	-0.002147	-0.049486	-0.026678	-0.704359	0.707615
05635	-0.975874	-9.751118	-0.013834	-0.079721	0.067456	-0.013406	-0.049430	-0.026743	-0.704321	0.707654
05636	-0.962100	-9.747095	-0.038158	-0.093874	0.092787	-0.019039	-0.049368	-0.026833	-0.704257	0.707718
05637	-0.995618	-9.670632	-0.009048	-0.051945	0.065849	-0.091297	-0.049294	-0.026929	-0.704195	0.707781
05638	-0.998667	-9.735012	-0.019366	-0.056563	0.077978	-0.027040	-0.049234	-0.027028	-0.704141	0.707835
05639	-1.047662	-9.747102	-0.012837	-0.009229	0.074067	-0.009719	-0.049183	-0.027074	-0.704086	0.707892
05640	-0.998316	-9.735053	-0.016692	-0.057021	0.078219	-0.027045	-0.049157	-0.027091	-0.704032	0.707947
05641	-1.048284	-9.726999	0.026154	-0.005554	0.038087	-0.029405	-0.049151	-0.027117	-0.703970	0.708008
05642	-0.975555	-9.751158	-0.004248	-0.081357	0.068326	-0.013426	-0.049127	-0.027143	-0.703925	0.708053
05643	-0.997932	-9.735097	-0.013331	-0.057673	0.078546	-0.027051	-0.049100	-0.027183	-0.703916	0.708063
05644	-0.992662	-9.711045	-0.073916	-0.061855	0.139173	-0.051947	-0.049097	-0.027188	-0.703905	0.708073
05645	-0.958398	-9.682805	-0.017221	-0.091534	0.081840	-0.083326	-0.049079	-0.027205	-0.703892	0.708087
05646	-0.979623	-9.686919	-0.062750	-0.072069	0.128351	-0.077271	-0.049072	-0.027227	-0.703872	0.708107
05647	-1.006042	-9.715091	-0.047605	-0.048614	0.114333	-0.046319	-0.049044	-0.027261	-0.703860	0.708119
05648	-1.005969	-9.715100	-0.047247	-0.048880	0.114491	-0.046323	-0.049025	-0.027298	-0.703834	0.708145
05649	-1.032312	-9.743279	-0.032350	-0.025421	0.100477	-0.015369	-0.048987	-0.027328	-0.703845	0.708135
05650	-1.024509	-9.743198	0.038772	-0.031504	0.029111	-0.015791	-0.048957	-0.027354	-0.703840	0.708141
05651	-1.001794	-9.759288	0.048727	-0.055567	0.019065	-0.002171	-0.048925	-0.027391	-0.703814	0.708168
05652	-0.988902	-9.735139	0.059840	-0.065574	0.008162	-0.027491	-0.048890	-0.027421	-0.703796	0.708187
05653	-1.011121	-9.719096	0.050816	-0.041895	0.018387	-0.041112	-0.048863	-0.027445	-0.703754	0.708229
05654	-0.988420	-9.735176	0.061629	-0.066030	0.008403	-0.027494	-0.048847	-0.027468	-0.703705	0.708279
05655	-1.041719	-9.683032	0.008088	-0.008506	0.064080	-0.073993	-0.048823	-0.027472	-0.703665	0.708320
05656	-1.027679	-9.679069	-0.016689	-0.022678	0.089398	-0.079637	-0.048833	-0.027488	-0.703641	0.708342
05657	-1.031423	-9.723318	0.008026	-0.023093	0.065250	-0.035059	-0.048824	-0.027462	-0.703645	0.708340
05658	-0.981848	-9.711276	0.002480	-0.070880	0.069355	-0.052406	-0.048832	-0.027440	-0.703664	0.708322
05659	-0.992838	-9.755692	-0.045009	-0.065508	0.116736	-0.007416	-0.048808	-0.027442	-0.703685	0.708302
05660	-0.944680	-9.723430	-0.014636	-0.109120	0.084611	-0.044440	-0.048805	-0.027448	-0.703702	0.708285
05661	-0.958252	-9.727447	0.009983	-0.095397	0.059537	-0.038797	-0.048786	-0.027454	-0.703740	0.708249
05662	-0.972869	-9.711307	0.070397	-0.077562	-0.001686	-0.052826	-0.048764	-0.027453	-0.703784	0.708206
05663	-0.984908	-9.735552	0.058384	-0.068022	0.009461	-0.027509	-0.048729	-0.027453	-0.703829	0.708164
05664	-1.006605	-9.719583	0.047335	-0.044411	0.019770	-0.041126	-0.048689	-0.027444	-0.703873	0.708124
05665	-0.978300	-9.711634	-0.004763	-0.072441	0.070165	-0.052423	-0.048645	-0.027487	-0.703900	0.708098
05666	-1.008904	-9.675563	-0.050189	-0.038882	0.115782	-0.085303	-0.048609	-0.027483	-0.703899	0.708102
05667	-0.994411	-9.671616	-0.075918	-0.052997	0.141024	-0.090955	-0.048571	-0.027505	-0.703908	0.708095
05668	-0.986570	-9.671562	-0.004945	-0.059016	0.069650	-0.091364	-0.048558	-0.027499	-0.703919	0.708085
05669	-1.002730	-9.740031	0.008136	-0.049699	0.056575	-0.021463	-0.048539	-0.027496	-0.703954	0.708051
05670	-1.016178	-9.744093	0.032446	-0.036038	0.031585	-0.015814	-0.048525	-0.027499	-0.703995	0.708011
05671	-1.043568	-9.752177	0.082202	-0.008377	-0.018619	-0.004510	-0.048505	-0.027506	-0.704032	0.707976
05672	-1.029302	-9.748203	0.055774	-0.022565	0.006688	-0.010163	-0.048464	-0.027536	-0.704053	0.707957
05673	-1.038821	-9.708015	0.056146	-0.008605	0.005861	-0.049094	-0.048427	-0.027565	-0.704064	0.707947
05674	-1.011802	-9.679871	0.040873	-0.032516	0.020087	-0.080069	-0.048385	-0.027574	-0.704079	0.707935
05675	-0.986241	-9.736273	-0.022064	-0.065003	0.082456	-0.027130	-0.048343	-0.027607	-0.704077	0.707939
05676	-0.971940	-9.732286	-0.047565	-0.079200	0.107757	-0.032788	-0.048273	-0.027663	-0.704069	0.707949
05677	-1.020514	-9.744483	-0.042473	-0.031877	0.103943	-0.015424	-0.048219	-0.027703	-0.704059	0.707961
05678	-1.026615	-9.748495	0.054257	-0.023926	0.007427	-0.010167	-0.048166	-0.027726	-0.704067	0.707955
05679	-0.982338	-9.760516	0.108915	-0.067629	-0.049041	-0.002614	-0.048084	-0.027779	-0.704121	0.707905
05680	-0.959341	-9.776639	0.116613	-0.091757	-0.059052	0.010993	-0.047945	-0.027899	-0.704202	0.707830
05681	-0.957894	-9.792897	-0.089779	-0.098694	0.145468	0.025786	-0.047802	-0.028004	-0.704247	0.707790
05682	-1.029894	-9.777316	-0.598197	-0.035179	0.656536	0.014934	-0.047819	-0.027945	-0.704108	0.707930
05683	-1.063823	-9.589026	-0.816441	0.014674	0.881623	-0.170580	-0.047997	-0.027709	-0.703749	0.708284
05684	-0.895883	-9.402193	0.255382	-0.109455	-0.187139	-0.366944	-0.048366	-0.027270	-0.703592	0.708432
05685	-0.762909	-9.638514	0.794500	-0.254063	-0.728724	-0.142185	-0.048394	-0.027190	-0.703823	0.708204
05686	-0.989960	-9.965815	0.512452	-0.069202	-0.445237	0.205150	-0.048166	-0.027416	-0.703963	0.708071
05687	-1.056207	-9.833260	0.528765	0.010923	-0.462856	0.080432	-0.047974	-0.027613	-0.703960	0.708079
05688	-1.042774	-9.729320	-0.122909	-0.004899	0.187042	-0.028662	-0.047727	-0.027838	-0.704014	0.708034
05689	-1.093836	-9.814581	-0.670689	0.025938	0.736119	0.057964	-0.047550	-0.028043	-0.703941	0.708110
05690	-1.131975	-9.674123	-0.699701	0.078052	0.768857	-0.078090	-0.047634	-0.027970	-0.703749	0.708298
05691	-0.964603	-9.516153	-0.207567	-0.061919	0.277038	-0.249732	-0.047837	-0.027764	-0.703623	0.708417
05692	-0.931927	-9.563397	0.341901	-0.088119	-0.272921	-0.202188	-0.047949	-0.027629	-0.703776	0.708264
05693	-0.925109	-9.756702	0.443091	-0.113019	-0.379897	-0.010224	-0.047910	-0.027655	-0.704107	0.707936
05694	-0.969825	-9.934298	0.248011	-0.091489	-0.190466	0.169682	-0.047796	-0.027775	-0.704296	0.707751
05695	-0.967475	-9.865966	0.089406	-0.089839	-0.034178	0.100539	-0.047695	-0.027884	-0.704238	0.707811
05696	-0.922721	-9.789416	0.027573	-0.127491	0.029359	0.019287	-0.047605	-0.027967	-0.704083	0.707968
05697	-0.926839	-9.725116	-0.028489	-0.117560	0.088979	-0.044577	-0.047491	-0.028075	-0.703959	0.708094
05698	-0.957495	-9.689074	-0.071046	-0.084050	0.134634	-0.077452	-0.047409	-0.028154	-0.703887	0.708169
05699	-0.979461	-9.673108	-0.080115	-0.060384	0.144909	-0.091055	-0.047330	-0.028199	-0.703892	0.708167
05700	-1.005349	-9.701393	-0.066327	-0.037000	0.131039	-0.060066	-0.047300	-0.028202	-0.703942	0.708119
05701	-1.025710	-9.705583	-0.114277	-0.017603	0.177543	-0.054017	-0.047288	-0.028175	-0.704026	0.708037
05702	-1.056982	-9.757988	-0.041095	0.009836	0.103240	0.001917	-0.047304	-0.028118	-0.704092	0.707973
05703	-1.043706	-9.733869	-0.031831	-0.000045	0.092230	-0.023405	-0.047337	-0.028050	-0.704130	0.707936
05704	-0.950578	-9.733612	0.018294	-0.091276	0.039606	-0.033258	-0.047355	-0.028011	-0.704147	0.707919
05705	-0.924922	-9.685287	0.039206	-0.110836	0.017487	-0.083904	-0.047321	-0.028015	-0.704167	0.707902
05706	-0.886597	-9.717424	-0.013138	-0.153207	0.068792	-0.056338	-0.047266	-0.028072	-0.704177	0.707893
05707	-0.915907	-9.701481	-0.094329	-0.123925	0.150614	-0.069563	-0.047215	-0.028127	-0.704152	0.707920
05708	-0.924026	-9.681447	-0.128975	-0.114296	0.186085	-0.088842	-0.047148	-0.028175	-0.704122	0.707951
05709	-0.959950	-9.669548	-0.112671	-0.076664	0.171247	-0.096765	-0.047105	-0.028193	-0.704088	0.707987
05710	-0.970469	-9.717850	0.009021	-0.068777	0.050532	-0.046869	-0.047097	-0.028181	-0.704086	0.707991
05711	-0.989461	-9.746084	0.094749	-0.050921	-0.034928	-0.016242	-0.047092	-0.028159	-0.704105	0.707973
05712	-0.984433	-9.810490	0.153699	-0.061283	-0.094296	0.047627	-0.047085	-0.028137	-0.704134	0.707946
05713	-1.013184	-9.794628	0.071352	-0.032009	-0.012446	0.034403	-0.047060	-0.028119	-0.704176	0.707906
05714	-1.072409	-9.851295	0.028496	0.020617	0.031249	0.096777	-0.046984	-0.028151	-0.704174	0.707912
05715	-1.007758	-9.754457	0.214563	-0.029445	-0.156191	-0.005252	-0.046936	-0.028180	-0.704156	0.707932
05716	-1.001638	-9.730380	0.153817	-0.033790	-0.095600	-0.030206	-0.046865	-0.028216	-0.704170	0.707921
05717	-0.936230	-9.730316	-0.081170	-0.102593	0.137829	-0.038607	-0.046807	-0.028235	-0.704173	0.707921
05718	-0.945240	-9.686276	-0.247222	-0.091500	0.305279	-0.082478	-0.046776	-0.028226	-0.704069	0.708027
05719	-0.946005	-9.666289	-0.207530	-0.087390	0.269147	-0.102123	-0.046782	-0.028186	-0.703909	0.708188
05720	-0.899666	-9.617624	0.032042	-0.123699	0.032436	-0.153869	-0.046782	-0.028175	-0.703786	0.708310
05721	-0.983178	-9.641950	0.185650	-0.039998	-0.118138	-0.119765	-0.046742	-0.028164	-0.703812	0.708287
05722	-1.002915	-9.750960	0.054521	-0.033870	0.012931	-0.010202	-0.046710	-0.028179	-0.703859	0.708242
05723	-1.021787	-9.775357	-0.028131	-0.018842	0.095684	0.015483	-0.046701	-0.028159	-0.703837	0.708265
05724	-1.010179	-9.731045	0.019751	-0.024450	0.048500	-0.029480	-0.046716	-0.028113	-0.703783	0.708320
05725	-1.010922	-9.710957	0.056581	-0.020319	0.012360	-0.049118	-0.046697	-0.028081	-0.703782	0.708323
05726	-0.987678	-9.727021	0.065854	-0.044439	0.002303	-0.035530	-0.046663	-0.028087	-0.703818	0.708289
05727	-0.967117	-9.807483	0.062945	-0.073028	0.004200	0.042294	-0.046604	-0.028122	-0.703853	0.708257
05728	-0.927803	-9.755027	0.058527	-0.106598	0.007218	-0.014045	-0.046532	-0.028204	-0.703847	0.708265
05729	-0.960800	-9.783466	0.001752	-0.077607	0.064869	0.017324	-0.046440	-0.028261	-0.703838	0.708278
05730	-1.045875	-9.783883	0.022679	0.007489	0.046383	0.026852	-0.046353	-0.028352	-0.703781	0.708336
05731	-1.031656	-9.779847	-0.001241	-0.006695	0.071578	0.021160	-0.046288	-0.028424	-0.703716	0.708402
05732	-1.042816	-9.719516	0.037645	0.011585	0.034609	-0.037384	-0.046254	-0.028422	-0.703634	0.708486
05733	-1.013975	-9.711505	-0.010846	-0.016601	0.084903	-0.048769	-0.046242	-0.028401	-0.703543	0.708578
05734	-1.055784	-9.615222	-0.016987	0.035406	0.093479	-0.140176	-0.046243	-0.028367	-0.703475	0.708647
05735	-1.032702	-9.631253	-0.005849	0.011356	0.083356	-0.126591	-0.046272	-0.028316	-0.703447	0.708675
05736	-1.030602	-9.651509	-0.041466	0.006747	0.119742	-0.106962	-0.046298	-0.028271	-0.703431	0.708691
05737	-0.972778	-9.659235	-0.011068	-0.050814	0.088240	-0.105119	-0.046334	-0.028226	-0.703455	0.708666
05738	-0.948314	-9.695431	-0.037981	-0.079287	0.114395	-0.071909	-0.046333	-0.028212	-0.703474	0.708647
05739	-0.953484	-9.719511	0.021642	-0.075335	0.054060	-0.046936	-0.046298	-0.028226	-0.703523	0.708600
05740	-0.916655	-9.731459	0.004791	-0.113457	0.069082	-0.039053	-0.046262	-0.028273	-0.703564	0.708560
05741	-0.965412	-9.743801	0.008255	-0.066142	0.065446	-0.021616	-0.046223	-0.028297	-0.703601	0.708525
05742	-0.955045	-9.784027	0.006618	-0.080618	0.066505	0.017288	-0.046208	-0.028310	-0.703610	0.708517
05743	-0.943912	-9.739644	0.052842	-0.086087	0.019244	-0.027666	-0.046196	-0.028312	-0.703642	0.708486
05744	-0.980056	-9.727783	0.067207	-0.048483	0.004542	-0.035550	-0.046191	-0.028298	-0.703680	0.708449
05745	-1.026858	-9.760349	0.034665	-0.005541	0.037137	0.001519	-0.046201	-0.028256	-0.703712	0.708418
05746	-1.027799	-9.740254	0.069942	-0.001431	0.001071	-0.018106	-0.046223	-0.028199	-0.703739	0.708393
05747	-1.007364	-9.712184	-0.016774	-0.019809	0.086662	-0.048790	-0.046228	-0.028161	-0.703757	0.708376
05748	-1.012340	-9.736342	0.043651	-0.015904	0.026406	-0.023809	-0.046229	-0.028126	-0.703750	0.708384
05749	-0.975152	-9.748298	0.028191	-0.053970	0.041350	-0.015933	-0.046217	-0.028113	-0.703749	0.708386
05750	-0.987133	-9.772577	0.017383	-0.044598	0.052647	0.009391	-0.046217	-0.028105	-0.703743	0.708393
05751	-0.939261	-9.740115	0.048880	-0.087915	0.020209	-0.027684	-0.046206	-0.028083	-0.703741	0.708396
05752	-0.945349	-9.740327	-0.022722	-0.082723	0.091918	-0.027348	-0.046202	-0.028053	-0.703748	0.708391
05753	-0.958907	-9.744446	0.002656	-0.068901	0.066917	-0.021645	-0.046185	-0.028062	-0.703732	0.708407
05754	-0.945827	-9.720274	0.013629	-0.078793	0.055931	-0.046974	-0.046178	-0.028016	-0.703727	0.708414
05755	-0.969270	-9.684226	0.040085	-0.050743	0.030045	-0.080173	-0.046171	-0.028009	-0.703709	0.708433
05756	-0.954580	-9.680216	0.015052	-0.065024	0.055284	-0.085882	-0.046130	-0.028008	-0.703694	0.708451
05757	-0.972296	-9.620094	-0.019253	-0.041158	0.089804	-0.144069	-0.046089	-0.028014	-0.703691	0.708456
05758	-0.940707	-9.656119	0.025672	-0.075103	0.044384	-0.111213	-0.046028	-0.028041	-0.703705	0.708445
05759	-0.950902	-9.700582	-0.021856	-0.070074	0.091846	-0.066270	-0.045972	-0.028083	-0.703723	0.708430
05760	-0.926339	-9.736727	-0.048564	-0.098594	0.117979	-0.033083	-0.045936	-0.028108	-0.703729	0.708424
05761	-0.939919	-9.740850	-0.023700	-0.084767	0.092989	-0.027375	-0.045902	-0.028113	-0.703749	0.708407
05762	-0.883637	-9.728380	0.042325	-0.137950	0.025265	-0.045174	-0.045885	-0.028106	-0.703779	0.708378
05763	-0.944367	-9.765072	0.034826	-0.081025	0.032828	-0.002385	-0.045853	-0.028095	-0.703836	0.708324
05764	-0.953808	-9.724961	0.034082	-0.067052	0.032087	-0.041287	-0.045843	-0.028087	-0.703888	0.708273
05765	-0.974068	-9.729225	-0.013306	-0.047808	0.078651	-0.035247	-0.045844	-0.028060	-0.703922	0.708241
05766	-0.989258	-9.713238	0.047253	-0.029623	0.017506	-0.049150	-0.045827	-0.028047	-0.703950	0.708214
05767	-0.986948	-9.733444	0.010006	-0.034238	0.053824	-0.029537	-0.045789	-0.028059	-0.703991	0.708175
05768	-0.972163	-9.729410	-0.016590	-0.048535	0.079055	-0.035254	-0.045737	-0.028071	-0.704031	0.708138
05769	-0.984134	-9.753689	-0.028181	-0.039123	0.090292	-0.009929	-0.045695	-0.028125	-0.704036	0.708135
05770	-0.985317	-9.733611	0.007862	-0.034962	0.054223	-0.029542	-0.045639	-0.028125	-0.704030	0.708144
05771	-0.935594	-9.721273	0.003497	-0.082660	0.057965	-0.047018	-0.045611	-0.028137	-0.704012	0.708163
05772	-0.960903	-9.665139	0.065375	-0.050211	-0.004073	-0.099810	-0.045541	-0.028161	-0.704058	0.708121
05773	-0.884353	-9.733074	0.128328	-0.131764	-0.070104	-0.039817	-0.045406	-0.028261	-0.704159	0.708025
05774	-0.938448	-9.741638	-0.109515	-0.082437	0.166152	-0.027096	-0.045284	-0.028374	-0.704236	0.707952
05775	-1.003743	-9.770417	-0.524065	-0.026760	0.581689	0.005873	-0.045261	-0.028362	-0.704165	0.708025
05776	-1.043646	-9.666679	-0.863666	0.018676	0.926702	-0.095658	-0.045415	-0.028142	-0.703867	0.708320
05777	-0.884929	-9.391257	0.088706	-0.094264	-0.023016	-0.379911	-0.045766	-0.027735	-0.703696	0.708483
05778	-0.701730	-9.594492	0.732001	-0.285345	-0.669078	-0.192218	-0.045841	-0.027595	-0.703932	0.708250
05779	-0.928450	-9.967059	0.471983	-0.102675	-0.408556	0.199785	-0.045640	-0.027800	-0.704086	0.708101
05780	-0.966315	-9.850730	0.568778	-0.051478	-0.507706	0.088512	-0.045459	-0.027969	-0.704101	0.708091
05781	-0.923987	-9.701739	0.106445	-0.085845	-0.048601	-0.066966	-0.045210	-0.028210	-0.704198	0.708001
05782	-1.056743	-9.847805	-0.603194	0.019605	0.662606	0.087837	-0.045001	-0.028446	-0.704171	0.708032
05783	-1.087695	-9.703420	-0.729785	0.063225	0.791985	-0.053549	-0.045038	-0.028434	-0.703972	0.708227
05784	-0.962791	-9.509290	-0.352034	-0.035197	0.416561	-0.257441	-0.045210	-0.028240	-0.703795	0.708400
05785	-0.914276	-9.552570	0.245632	-0.078294	-0.180030	-0.215329	-0.045339	-0.028118	-0.703864	0.708328
05786	-0.935992	-9.753995	0.399208	-0.075081	-0.336939	-0.011836	-0.045345	-0.028115	-0.704148	0.708046
05787	-0.965791	-9.907432	0.214957	-0.064338	-0.158432	0.142559	-0.045292	-0.028173	-0.704356	0.707841
05788	-0.943686	-9.899268	0.089831	-0.087382	-0.036593	0.131414	-0.045224	-0.028215	-0.704352	0.707847
05789	-0.936774	-9.790611	0.078494	-0.082706	-0.024399	0.022572	-0.045181	-0.028219	-0.704253	0.707948
05790	-0.897085	-9.738046	0.077261	-0.116203	-0.021530	-0.033817	-0.045120	-0.028231	-0.704174	0.708030
05791	-0.911040	-9.718134	-0.028204	-0.101289	0.085458	-0.052802	-0.045043	-0.028265	-0.704149	0.708058
05792	-0.883938	-9.689807	-0.042851	-0.125200	0.099493	-0.083866	-0.044975	-0.028324	-0.704178	0.708031
05793	-0.912203	-9.674005	-0.125971	-0.096241	0.181430	-0.097124	-0.044884	-0.028360	-0.704259	0.707955
05794	-0.925453	-9.678202	-0.103576	-0.082444	0.156530	-0.091397	-0.044819	-0.028379	-0.704380	0.707838
05795	-0.973641	-9.690728	-0.102319	-0.035152	0.153022	-0.073898	-0.044763	-0.028399	-0.704480	0.707741
05796	-0.981091	-9.779404	-0.056239	-0.035817	0.104857	0.015342	-0.044764	-0.028378	-0.704566	0.707656
05797	-0.968199	-9.755208	-0.047627	-0.045598	0.093767	-0.009989	-0.044778	-0.028333	-0.704639	0.707584
05798	-0.973505	-9.779528	0.010957	-0.041573	0.033537	0.015036	-0.044802	-0.028286	-0.704704	0.707520
05799	-0.938155	-9.771266	0.030213	-0.075200	0.012158	0.003263	-0.044806	-0.028258	-0.704751	0.707474
05800	-0.996719	-9.743675	0.034288	-0.013701	0.007845	-0.018119	-0.044791	-0.028246	-0.704788	0.707439
05801	-0.990427	-9.719423	-0.027283	-0.018192	0.068328	-0.043149	-0.044777	-0.028261	-0.704816	0.707412
05802	-0.953369	-9.731189	-0.043149	-0.056373	0.083242	-0.035331	-0.044761	-0.028253	-0.704819	0.707410
05803	-0.952964	-9.731228	-0.043133	-0.056573	0.083327	-0.035333	-0.044743	-0.028270	-0.704805	0.707424
05804	-0.954682	-9.711199	-0.006693	-0.052336	0.047255	-0.054928	-0.044718	-0.028305	-0.704791	0.707438
05805	-0.933882	-9.707089	0.039380	-0.071866	0.000823	-0.060965	-0.044691	-0.028324	-0.704803	0.707427
05806	-0.923473	-9.747267	0.037589	-0.086400	0.001867	-0.022081	-0.044674	-0.028346	-0.704842	0.707388
05807	-0.950138	-9.751350	-0.081290	-0.061994	0.120060	-0.015752	-0.044635	-0.028369	-0.704879	0.707353
05808	-0.965243	-9.759949	0.111558	-0.044611	-0.073007	-0.004862	-0.044589	-0.028381	-0.704880	0.707355
05809	-0.888794	-9.743453	0.224049	-0.116872	-0.187461	-0.028709	-0.044555	-0.028401	-0.704931	0.707305
05810	-0.905549	-9.763278	-0.027934	-0.105899	0.063631	-0.008243	-0.044528	-0.028418	-0.704966	0.707271
05811	-0.922025	-9.783103	-0.278448	-0.094885	0.314664	0.012218	-0.044501	-0.028399	-0.704912	0.707328
05812	-0.948124	-9.702886	-0.344932	-0.061363	0.384615	-0.065266	-0.044532	-0.028359	-0.704734	0.707505
05813	-0.914275	-9.614539	-0.103365	-0.082123	0.146719	-0.155686	-0.044574	-0.028295	-0.704590	0.707648
05814	-0.927570	-9.558597	0.103882	-0.059960	-0.058423	-0.208993	-0.044593	-0.028283	-0.704588	0.707649
05815	-0.923228	-9.707518	0.114037	-0.079340	-0.069519	-0.061270	-0.044566	-0.028293	-0.704687	0.707552
05816	-0.929519	-9.791965	-0.007571	-0.083625	0.050516	0.022814	-0.044570	-0.028305	-0.704728	0.707510
05817	-0.958057	-9.776045	-0.089096	-0.054765	0.132484	0.009548	-0.044571	-0.028281	-0.704681	0.707558
05818	-0.949129	-9.711744	-0.004707	-0.055522	0.048989	-0.054954	-0.044572	-0.028264	-0.704645	0.707595
05819	-0.983574	-9.720123	-0.025840	-0.022325	0.070578	-0.043174	-0.044582	-0.028258	-0.704687	0.707552
05820	-0.952829	-9.756117	0.017900	-0.056180	0.025083	-0.010328	-0.044570	-0.028298	-0.704746	0.707492
05821	-0.945025	-9.751854	-0.080397	-0.065261	0.121775	-0.015795	-0.044540	-0.028346	-0.704786	0.707452
05822	-0.934833	-9.707548	-0.034100	-0.070537	0.074505	-0.060711	-0.044491	-0.028433	-0.704794	0.707444
05823	-0.924839	-9.747673	-0.035658	-0.085023	0.075478	-0.021834	-0.044434	-0.028516	-0.704817	0.707422
05824	-0.939264	-9.751856	-0.010907	-0.071190	0.050603	-0.016086	-0.044402	-0.028583	-0.704817	0.707421
05825	-0.900533	-9.699165	-0.014270	-0.104584	0.053319	-0.072503	-0.044385	-0.028607	-0.704805	0.707433
05826	-0.902286	-9.679145	0.022011	-0.100294	0.017244	-0.092086	-0.044344	-0.028642	-0.704801	0.707438
05827	-0.920573	-9.703343	-0.060559	-0.085753	0.100113	-0.066477	-0.044312	-0.028680	-0.704803	0.707437
05828	-0.967353	-9.651504	-0.044869	-0.033781	0.084675	-0.113151	-0.044299	-0.028702	-0.704822	0.707417
05829	-0.960950	-9.736025	-0.022207	-0.048467	0.061508	-0.029643	-0.044285	-0.028702	-0.704846	0.707395
05830	-0.958704	-9.756083	-0.059150	-0.053291	0.097895	-0.010068	-0.044281	-0.028715	-0.704866	0.707375
05831	-0.989042	-9.744481	0.026485	-0.020719	0.011709	-0.018135	-0.044274	-0.028721	-0.704913	0.707328
05832	-0.998984	-9.788783	-0.022061	-0.016005	0.059302	0.026772	-0.044250	-0.028733	-0.704954	0.707288
05833	-0.951589	-9.756251	0.008512	-0.059122	0.026658	-0.010350	-0.044225	-0.028744	-0.705005	0.707238
05834	-0.965664	-9.760492	0.032285	-0.045276	0.001793	-0.004594	-0.044189	-0.028798	-0.705048	0.707195
05835	-0.930700	-9.752195	0.051483	-0.078846	-0.019644	-0.016384	-0.044133	-0.028831	-0.705125	0.707121
05836	-0.916220	-9.747995	0.023939	-0.093216	0.005533	-0.022145	-0.044108	-0.028880	-0.705204	0.707042
05837	-0.930458	-9.752241	0.046959	-0.079298	-0.019404	-0.016387	-0.044089	-0.028901	-0.705273	0.706973
05838	-0.926228	-9.707880	0.020678	-0.079367	0.004889	-0.061024	-0.044081	-0.028915	-0.705340	0.706906
05839	-0.940476	-9.712135	0.043894	-0.065451	-0.020036	-0.055265	-0.044059	-0.028957	-0.705408	0.706838
05840	-1.007734	-9.748743	-0.036259	-0.003556	0.059434	-0.012111	-0.044027	-0.028986	-0.705459	0.706788
05841	-1.050495	-9.736884	-0.093735	0.039332	0.116422	-0.019622	-0.044009	-0.029026	-0.705479	0.706767
05842	-1.028103	-9.752789	-0.084366	0.015228	0.106251	-0.006083	-0.044014	-0.029043	-0.705495	0.706750
05843	-1.030010	-9.732834	-0.048596	0.019610	0.070105	-0.025653	-0.044054	-0.028994	-0.705506	0.706739
05844	-0.982826	-9.700330	-0.017163	-0.023546	0.037502	-0.062781	-0.044085	-0.028969	-0.705537	0.706707
05845	-0.935832	-9.692488	0.145256	-0.067349	-0.127113	-0.075105	-0.044087	-0.028981	-0.705617	0.706627
05846	-0.896909	-9.724139	0.091115	-0.110158	-0.076050	-0.047765	-0.044034	-0.029031	-0.705723	0.706522
05847	-0.947579	-9.776372	-0.051328	-0.066953	0.064600	0.009193	-0.043994	-0.029063	-0.705791	0.706456
05848	-0.949276	-9.731714	-0.147454	-0.061917	0.160468	-0.035186	-0.044010	-0.029046	-0.705745	0.706501
05849	-1.032627	-9.668340	-0.114529	0.028112	0.130344	-0.089599	-0.044043	-0.028994	-0.705670	0.706576
05850	-1.036234	-9.712819	-0.089020	0.027656	0.106373	-0.044961	-0.044107	-0.028912	-0.705646	0.706599
05851	-1.100898	-9.794098	-0.071594	0.084267	0.090118	0.042577	-0.044172	-0.028803	-0.705660	0.706586
05852	-1.053287	-9.845948	-0.087984	0.031718	0.105828	0.089213	-0.044294	-0.028662	-0.705662	0.706582
05853	-1.020149	-9.817751	-0.030247	0.002773	0.048125	0.057851	-0.044432	-0.028503	-0.705633	0.706608
05854	-0.946149	-9.756777	-0.011727	-0.064004	0.029279	-0.010388	-0.044570	-0.028340	-0.705619	0.706620
05855	-0.896663	-9.659933	0.032310	-0.102260	-0.015530	-0.111726	-0.044704	-0.028190	-0.705640	0.706597
05856	-0.841419	-9.622890	-0.033499	-0.154428	0.048414	-0.154379	-0.044813	-0.028095	-0.705700	0.706534
05857	-0.829505	-9.598634	-0.024386	-0.164140	0.037273	-0.179717	-0.044879	-0.028096	-0.705773	0.706456
05858	-0.783350	-9.566048	0.005314	-0.207255	0.004621	-0.216857	-0.044942	-0.028119	-0.705862	0.706363
05859	-0.788495	-9.610392	0.027131	-0.207637	-0.019431	-0.172220	-0.045004	-0.028166	-0.705934	0.706285
05860	-0.822301	-9.638493	-0.032245	-0.179180	0.038524	-0.140863	-0.045041	-0.028209	-0.706001	0.706214
05861	-0.909026	-9.723591	-0.062835	-0.103377	0.068875	-0.047286	-0.045103	-0.028242	-0.706041	0.706169
05862	-0.983536	-9.784466	-0.081350	-0.037152	0.088069	0.020959	-0.045174	-0.028255	-0.706033	0.706172
05863	-0.963695	-9.780443	-0.034964	-0.056555	0.041577	0.014930	-0.045254	-0.028215	-0.706023	0.706178
05864	-1.016835	-9.837440	-0.006474	-0.009531	0.014198	0.077152	-0.045362	-0.028115	-0.706019	0.706179
05865	-1.016436	-9.837481	-0.006653	-0.009731	0.014292	0.077152	-0.045466	-0.027978	-0.706036	0.706161
05866	-1.001192	-9.858151	0.099650	-0.024734	-0.092486	0.096212	-0.045523	-0.027881	-0.706047	0.706150
05867	-0.943263	-9.865908	0.129521	-0.082096	-0.124342	0.097936	-0.045483	-0.027892	-0.706107	0.706092
05868	-1.010505	-9.877459	-0.081695	-0.019758	0.087167	0.116261	-0.045425	-0.027933	-0.706106	0.706095
05869	-1.022913	-9.827045	-0.486502	-0.008740	0.494299	0.067062	-0.045475	-0.027841	-0.705956	0.706245
05870	-1.123063	-9.673996	-0.782125	0.101772	0.798896	-0.075615	-0.045692	-0.027581	-0.705607	0.706591
05871	-1.042581	-9.439910	0.024620	0.060917	-0.000663	-0.315543	-0.046151	-0.027043	-0.705364	0.706825
05872	-0.833837	-9.533388	0.704141	-0.141710	-0.681960	-0.242346	-0.046440	-0.026650	-0.705489	0.706695
05873	-0.977580	-9.844372	0.533262	-0.032606	-0.510794	0.081236	-0.046422	-0.026584	-0.705575	0.706614
05874	-1.037317	-9.712804	0.622140	0.043135	-0.599471	-0.043326	-0.046356	-0.026592	-0.705569	0.706623
05875	-0.950973	-9.573292	0.216859	-0.036024	-0.197676	-0.191933	-0.046205	-0.026721	-0.705688	0.706509
05876	-0.991182	-9.665706	-0.707594	-0.023629	0.724487	-0.097567	-0.046004	-0.026927	-0.705772	0.706431
05877	-0.963000	-9.632357	-0.889738	-0.051648	0.906491	-0.134004	-0.046008	-0.026940	-0.705646	0.706556
05878	-0.886365	-9.472479	-0.544262	-0.105068	0.563212	-0.300512	-0.046172	-0.026781	-0.705511	0.706686
05879	-0.820673	-9.470339	0.003305	-0.159460	0.015585	-0.308206	-0.046308	-0.026634	-0.705567	0.706627
05880	-0.878136	-9.685806	0.303587	-0.118493	-0.287616	-0.087393	-0.046341	-0.026620	-0.705822	0.706371
05881	-0.919104	-9.887345	0.239112	-0.099951	-0.229564	0.117007	-0.046261	-0.026717	-0.706075	0.706119
05882	-0.976589	-9.964031	0.155053	-0.052605	-0.149070	0.199041	-0.046194	-0.026800	-0.706146	0.706050
05883	-0.982864	-9.879441	0.132145	-0.038268	-0.125736	0.115534	-0.046120	-0.026881	-0.706053	0.706144
05884	-0.953932	-9.786569	0.132905	-0.057305	-0.123959	0.020213	-0.046004	-0.026954	-0.705929	0.706273
05885	-0.979861	-9.790286	0.018030	-0.033379	-0.005678	0.026469	-0.045866	-0.027025	-0.705836	0.706372
05886	-0.944386	-9.757233	-0.091090	-0.066474	0.104784	-0.010220	-0.045725	-0.027105	-0.705783	0.706431
05887	-0.926960	-9.688695	-0.103469	-0.075972	0.117724	-0.080209	-0.045605	-0.027147	-0.705769	0.706451
05888	-0.935733	-9.732975	-0.150756	-0.071454	0.165358	-0.035332	-0.045515	-0.027138	-0.705773	0.706454
05889	-0.936152	-9.713217	-0.114266	-0.066969	0.129222	-0.054879	-0.045431	-0.027129	-0.705747	0.706485
05890	-1.020187	-9.714478	-0.093246	0.018233	0.111431	-0.044996	-0.045361	-0.027087	-0.705657	0.706581
05891	-1.024433	-9.654905	0.018320	0.032121	0.002827	-0.103622	-0.045319	-0.027015	-0.705542	0.706701
05892	-1.081963	-9.627636	0.026705	0.093688	-0.001227	-0.124863	-0.045280	-0.026953	-0.705427	0.706821
05893	-1.025059	-9.615351	0.096919	0.041073	-0.069389	-0.142702	-0.045232	-0.026890	-0.705321	0.706933
05894	-1.002598	-9.695750	0.097586	0.012102	-0.067491	-0.064990	-0.045181	-0.026816	-0.705227	0.707032
05895	-0.996761	-9.735848	0.027662	0.002489	0.005060	-0.025910	-0.045123	-0.026774	-0.705130	0.707134
05896	-0.956464	-9.767537	-0.021145	-0.040485	0.056036	0.001347	-0.045077	-0.026736	-0.705027	0.707241
05897	-0.922038	-9.823649	-0.009587	-0.078878	0.046608	0.053716	-0.045014	-0.026692	-0.704942	0.707332
05898	-0.889760	-9.859735	0.037853	-0.112618	0.001013	0.086545	-0.044945	-0.026693	-0.704865	0.707413
05899	-0.847746	-9.851474	0.132439	-0.151039	-0.092142	0.074499	-0.044850	-0.026736	-0.704783	0.707499
05900	-0.842540	-9.891570	0.061512	-0.160735	-0.019529	0.113570	-0.044725	-0.026789	-0.704747	0.707540
