// General information: 
//  MT Manager version: 2021.0.0 
//  XDA version: 2021.0.0 build 5908 rev 109668 built on 2021-04-19
// Device information: 
//  DeviceId: 00B48506
//  ProductCode: MTW2-3A7G6
//  Firmware Version: 4.6.0
//  Hardware Version: 2.0.0
// Device settings: 
//  Filter Profile: human(46.1)
//  Option Flags: Orientation Smoother Disabled, Position/Velocity Smoother Disabled, Continuous Zero Rotation Update Disabled, AHS Disabled, ICC Disabled
// Coordinate system: ENU
PacketCounter	Acc_X	Acc_Y	Acc_Z	FreeAcc_E	FreeAcc_N	FreeAcc_U	Quat_q0	Quat_q1	Quat_q2	Quat_q3
04744	-2.128860	-4.794400	7.965725	0.059622	0.048050	-0.275118	-0.626254	0.089273	-0.275237	0.723934
04745	-2.201517	-4.823558	8.037149	0.083516	0.097894	-0.184988	-0.626330	0.089312	-0.275360	0.723817
04746	-2.195640	-4.889722	8.137250	0.075719	0.064385	-0.069219	-0.626379	0.089362	-0.275654	0.723656
04747	-2.176939	-5.000184	8.149922	-0.012218	0.045213	-0.006570	-0.626448	0.089430	-0.275995	0.723458
04748	-2.109230	-5.101505	8.155641	-0.104998	-0.020042	0.035016	-0.626520	0.089487	-0.276335	0.723259
04749	-2.006040	-5.150479	8.241215	-0.122537	-0.145194	0.108661	-0.626580	0.089539	-0.276628	0.723089
04750	-2.065528	-5.190695	8.286980	-0.119877	-0.103444	0.180244	-0.626608	0.089540	-0.276850	0.722979
04751	-2.154992	-5.087542	8.298951	-0.006060	-0.029876	0.157204	-0.626601	0.089560	-0.276883	0.722971
04752	-2.247638	-5.010427	8.354872	0.105663	0.039272	0.184684	-0.626578	0.089694	-0.276759	0.723022
04753	-2.239862	-4.948723	8.335619	0.148776	0.038859	0.135466	-0.626579	0.089968	-0.276553	0.723065
04754	-2.200077	-4.931912	8.353380	0.165071	0.000998	0.132955	-0.626609	0.090247	-0.276366	0.723076
04755	-2.229298	-4.978640	8.420852	0.164214	0.017852	0.219266	-0.626667	0.090474	-0.276236	0.723047
04756	-2.126629	-5.057328	8.406365	0.070071	-0.068232	0.225067	-0.626758	0.090553	-0.276169	0.722984
04757	-2.066539	-5.152055	8.333959	-0.058237	-0.099048	0.200101	-0.626845	0.090461	-0.276185	0.722914
04758	-2.000311	-5.149847	8.345090	-0.066661	-0.169936	0.193779	-0.626923	0.090138	-0.276309	0.722839
04759	-2.072483	-5.120301	8.291335	-0.056329	-0.094417	0.149582	-0.626972	0.089711	-0.276467	0.722789
04760	-2.136440	-5.028722	8.258415	0.015008	-0.036881	0.089446	-0.627023	0.089322	-0.276577	0.722751
04761	-2.176542	-4.946278	8.243728	0.082847	-0.004267	0.044045	-0.627076	0.089090	-0.276584	0.722731
04762	-2.198164	-4.907389	8.143387	0.070584	0.042310	-0.054492	-0.627124	0.089101	-0.276462	0.722735
04763	-2.226459	-4.889862	8.191214	0.112950	0.058482	-0.017399	-0.627163	0.089317	-0.276221	0.722766
04764	-2.150363	-4.924100	8.141214	0.045656	0.009662	-0.058303	-0.627209	0.089703	-0.275947	0.722783
04765	-2.075206	-5.021779	8.111171	-0.064882	-0.038320	-0.049995	-0.627255	0.090173	-0.275675	0.722789
04766	-2.015948	-5.111562	8.103891	-0.154165	-0.078508	-0.023141	-0.627310	0.090594	-0.275443	0.722777
04767	-1.944576	-5.140098	8.157911	-0.164703	-0.153485	0.021072	-0.627357	0.090886	-0.275292	0.722757
04768	-1.879539	-5.104908	8.150217	-0.149747	-0.212173	-0.017211	-0.627373	0.090961	-0.275237	0.722754
04769	-1.924611	-5.017344	8.199820	-0.042907	-0.188726	-0.010776	-0.627382	0.090828	-0.275256	0.722757
04770	-2.018529	-4.973348	8.233855	0.027664	-0.114570	0.015391	-0.627333	0.090581	-0.275366	0.722788
04771	-2.088500	-4.973087	8.263418	0.053620	-0.060420	0.054985	-0.627252	0.090316	-0.275472	0.722850
04772	-2.171308	-4.902171	8.295913	0.144063	0.000864	0.063915	-0.627188	0.090071	-0.275554	0.722905
04773	-2.165304	-4.936214	8.315038	0.120595	-0.011058	0.095891	-0.627129	0.089904	-0.275574	0.722970
04774	-2.102083	-4.933852	8.285437	0.094439	-0.064809	0.056304	-0.627085	0.089785	-0.275585	0.723019
04775	-2.141554	-5.046905	8.226658	-0.024203	-0.003851	0.073404	-0.627044	0.089684	-0.275548	0.723080
04776	-2.125085	-5.025801	8.120997	-0.061175	0.009667	-0.028955	-0.627016	0.089612	-0.275458	0.723148
04777	-2.039702	-5.066013	8.047447	-0.149692	-0.047000	-0.088405	-0.626972	0.089539	-0.275331	0.723244
04778	-2.106956	-5.002054	8.017439	-0.098255	0.023446	-0.131317	-0.626928	0.089456	-0.275180	0.723350
04779	-2.125402	-4.831440	7.982395	0.032706	0.042500	-0.243158	-0.626873	0.089405	-0.275013	0.723467
04780	-2.149121	-4.785692	7.987956	0.077201	0.062795	-0.256585	-0.626821	0.089380	-0.274888	0.723563
04781	-2.159931	-4.811331	7.990215	0.057204	0.075941	-0.239355	-0.626775	0.089388	-0.274815	0.723630
04782	-2.147102	-4.784773	7.989049	0.076996	0.063192	-0.256586	-0.626728	0.089416	-0.274829	0.723661
04783	-2.054573	-4.794086	8.017577	0.065139	-0.032626	-0.248130	-0.626681	0.089464	-0.274888	0.723674
04784	-2.012670	-4.944793	7.988059	-0.085135	-0.055036	-0.205366	-0.626640	0.089478	-0.274969	0.723677
04785	-1.929541	-5.015607	7.995794	-0.157993	-0.133067	-0.180995	-0.626590	0.089442	-0.275035	0.723700
04786	-1.895246	-5.067418	7.927129	-0.241662	-0.143973	-0.219412	-0.626507	0.089350	-0.275081	0.723765
04787	-1.827599	-5.100585	7.875558	-0.308921	-0.192712	-0.260309	-0.626376	0.089198	-0.275103	0.723889
04788	-1.921134	-4.959740	7.910917	-0.154019	-0.124096	-0.282039	-0.626173	0.088997	-0.275147	0.724072
04789	-2.093558	-4.881892	7.913907	-0.051884	0.033443	-0.281582	-0.625892	0.088854	-0.275218	0.724306
04790	-2.303078	-4.815936	8.005025	0.090595	0.202598	-0.193509	-0.625590	0.088816	-0.275269	0.724552
04791	-2.401094	-4.739965	8.018825	0.184448	0.289144	-0.199340	-0.625320	0.088958	-0.275262	0.724770
04792	-2.420923	-4.796479	8.020788	0.144568	0.315046	-0.164892	-0.625131	0.089214	-0.275249	0.724907
04793	-2.347970	-4.861181	8.051990	0.092942	0.244991	-0.121973	-0.625029	0.089482	-0.275226	0.724971
04794	-2.265329	-4.933266	8.018856	0.002347	0.183916	-0.130897	-0.624965	0.089701	-0.275234	0.724995
04795	-2.119650	-5.030838	8.039410	-0.098649	0.047746	-0.095571	-0.624918	0.089822	-0.275243	0.725018
04796	-2.061891	-4.960868	8.052740	-0.042519	-0.015835	-0.132493	-0.624845	0.089807	-0.275323	0.725052
04797	-2.040779	-4.936107	8.132573	0.012797	-0.062631	-0.083114	-0.624725	0.089682	-0.275463	0.725118
04798	-2.152354	-4.920907	8.125049	0.045645	0.041574	-0.073049	-0.624553	0.089513	-0.275648	0.725216
04799	-2.193963	-4.932713	8.212195	0.085853	0.053602	0.014572	-0.624358	0.089384	-0.275801	0.725342
04800	-2.217472	-4.924973	8.193102	0.089218	0.078815	-0.000181	-0.624176	0.089300	-0.275905	0.725470
04801	-2.194265	-4.997373	8.271626	0.060159	0.037611	0.097070	-0.624034	0.089244	-0.275989	0.725567
04802	-2.283580	-5.025302	8.219523	0.030644	0.138726	0.087250	-0.623872	0.089152	-0.276057	0.725692
04803	-2.397537	-5.009298	8.171745	0.045686	0.260157	0.063998	-0.623711	0.089127	-0.276049	0.725836
04804	-2.372622	-4.955888	8.169570	0.085381	0.234539	0.029555	-0.623598	0.089137	-0.275986	0.725956
04805	-2.360447	-4.963631	8.105793	0.046278	0.243904	-0.022305	-0.623511	0.089174	-0.275939	0.726043
04806	-2.400918	-4.912348	8.132832	0.111976	0.272214	-0.017184	-0.623453	0.089216	-0.275939	0.726089
04807	-2.394891	-4.914047	8.173375	0.129626	0.255407	0.016116	-0.623398	0.089276	-0.275986	0.726110
04808	-2.378759	-4.924271	8.149056	0.108300	0.247544	-0.002435	-0.623356	0.089353	-0.276099	0.726094
04809	-2.349661	-4.999041	8.267625	0.097004	0.189273	0.128123	-0.623340	0.089417	-0.276278	0.726032
04810	-2.268610	-5.099024	8.357395	0.039822	0.089796	0.236344	-0.623323	0.089396	-0.276509	0.725961
04811	-2.199241	-5.162508	8.428118	0.005991	0.002665	0.312592	-0.623329	0.089231	-0.276735	0.725890
04812	-2.215660	-5.154584	8.491013	0.044872	-0.006284	0.364450	-0.623311	0.088950	-0.276859	0.725892
04813	-2.216850	-5.186685	8.469409	0.003637	-0.001125	0.363117	-0.623289	0.088607	-0.276856	0.725954
04814	-2.197549	-5.128321	8.468835	0.043340	-0.026746	0.328686	-0.623262	0.088231	-0.276745	0.726066
04815	-2.315475	-5.133464	8.507434	0.073976	0.073427	0.389246	-0.623232	0.087871	-0.276515	0.726224
04816	-2.335372	-5.055023	8.473231	0.120580	0.097951	0.325296	-0.623211	0.087566	-0.276150	0.726417
04817	-2.403217	-5.020425	8.383338	0.113051	0.190512	0.247700	-0.623214	0.087351	-0.275684	0.726617
04818	-2.402458	-4.950145	8.327336	0.138434	0.207032	0.165199	-0.623214	0.087237	-0.275197	0.726816
04819	-2.413526	-4.942832	8.209212	0.085018	0.258509	0.065258	-0.623218	0.087223	-0.274768	0.726976
04820	-2.325074	-4.882754	8.140235	0.080978	0.195998	-0.042032	-0.623265	0.087237	-0.274428	0.727063
04821	-2.342807	-4.870910	8.125203	0.084314	0.221340	-0.056800	-0.623350	0.087297	-0.274174	0.727078
04822	-2.336811	-4.938641	8.042845	-0.015813	0.248261	-0.092794	-0.623473	0.087378	-0.273986	0.727034
04823	-2.194469	-4.969527	8.004706	-0.091220	0.128420	-0.139922	-0.623592	0.087440	-0.273870	0.726968
04824	-2.114835	-5.030224	8.119772	-0.107260	0.024073	-0.030342	-0.623700	0.087444	-0.273852	0.726882
04825	-2.184059	-5.093358	8.169913	-0.124669	0.078981	0.058387	-0.623766	0.087356	-0.273891	0.726821
04826	-2.262066	-5.050752	8.326238	-0.000941	0.102090	0.184455	-0.623798	0.087148	-0.273925	0.726806
04827	-2.262565	-4.951586	8.368499	0.101104	0.079769	0.169927	-0.623827	0.086904	-0.273952	0.726800
04828	-2.308581	-4.896552	8.395756	0.166777	0.108111	0.175054	-0.623890	0.086624	-0.273943	0.726783
04829	-2.342517	-4.814420	8.421802	0.252356	0.123739	0.162972	-0.623973	0.086389	-0.273923	0.726746
04830	-2.397838	-4.758959	8.367053	0.282487	0.186196	0.101465	-0.624076	0.086242	-0.273868	0.726696
04831	-2.415723	-4.782755	8.328710	0.244691	0.216403	0.085351	-0.624213	0.086221	-0.273698	0.726646
04832	-2.333178	-4.821800	8.215864	0.138515	0.176449	-0.007405	-0.624393	0.086308	-0.273418	0.726586
04833	-2.275487	-4.851902	8.044550	0.018023	0.178758	-0.148253	-0.624600	0.086450	-0.273069	0.726523
04834	-2.106290	-4.827769	8.005616	-0.017520	0.032984	-0.229771	-0.624847	0.086605	-0.272681	0.726437
04835	-1.977454	-4.856994	7.845840	-0.146180	-0.035752	-0.376837	-0.625077	0.086773	-0.272373	0.726335
04836	-1.908939	-4.853770	7.818263	-0.172234	-0.089621	-0.416376	-0.625294	0.086867	-0.272186	0.726207
04837	-1.826945	-4.859934	7.766390	-0.219487	-0.151364	-0.474464	-0.625478	0.086896	-0.272153	0.726058
04838	-1.783687	-4.815343	7.780834	-0.183196	-0.202065	-0.494101	-0.625614	0.086839	-0.272292	0.725895
04839	-1.840217	-4.756297	7.869721	-0.078545	-0.182593	-0.437094	-0.625689	0.086724	-0.272567	0.725741
04840	-1.891445	-4.795635	7.997998	-0.040528	-0.174774	-0.298936	-0.625709	0.086585	-0.272929	0.725603
04841	-1.939234	-4.870450	8.104294	-0.043640	-0.161956	-0.162125	-0.625700	0.086433	-0.273271	0.725501
04842	-1.903662	-4.916672	8.221491	-0.035001	-0.233171	-0.048727	-0.625675	0.086252	-0.273497	0.725459
04843	-1.908661	-4.917042	8.220111	-0.035104	-0.232901	-0.048721	-0.625666	0.086072	-0.273644	0.725433
04844	-1.932426	-5.004680	8.200907	-0.116171	-0.202185	-0.015668	-0.625658	0.085893	-0.273675	0.725449
04845	-1.961121	-4.993899	8.142424	-0.130607	-0.159816	-0.063765	-0.625625	0.085759	-0.273608	0.725518
04846	-2.055848	-4.921579	8.052120	-0.093605	-0.047231	-0.154836	-0.625570	0.085686	-0.273451	0.725634
04847	-2.053493	-4.795293	7.971071	-0.024924	-0.031283	-0.286510	-0.625513	0.085746	-0.273242	0.725755
04848	-1.993521	-4.757832	7.923753	-0.027590	-0.072948	-0.358013	-0.625450	0.085875	-0.273069	0.725859
04849	-2.053577	-4.732530	7.870257	-0.017389	0.002504	-0.402340	-0.625386	0.086078	-0.272981	0.725923
04850	-2.072490	-4.753235	7.935435	0.001561	0.006511	-0.333260	-0.625292	0.086301	-0.272987	0.725975
04851	-2.022888	-4.809124	7.948512	-0.046539	-0.038516	-0.305062	-0.625216	0.086525	-0.273095	0.725974
04852	-2.074780	-4.912076	8.057222	-0.069593	-0.012925	-0.151061	-0.625109	0.086665	-0.273262	0.725986
04853	-2.126883	-4.979798	8.228479	-0.033761	-0.009062	0.037625	-0.625011	0.086723	-0.273438	0.725997
04854	-2.201523	-5.045375	8.235810	-0.069004	0.062787	0.092987	-0.624925	0.086692	-0.273572	0.726024
04855	-2.228852	-5.002622	8.238334	-0.024557	0.083290	0.079563	-0.624853	0.086606	-0.273650	0.726067
04856	-2.317203	-4.995333	8.249263	0.004677	0.162504	0.104303	-0.624818	0.086540	-0.273669	0.726098
04857	-2.339078	-4.986264	8.231337	0.007993	0.187841	0.089518	-0.624801	0.086519	-0.273629	0.726130
04858	-2.244670	-4.965958	8.178176	-0.019291	0.113066	0.014249	-0.624834	0.086575	-0.273524	0.726135
04859	-2.148041	-4.911032	8.187857	0.012320	0.016571	-0.026325	-0.624880	0.086673	-0.273422	0.726122
04860	-2.115320	-4.831260	8.142814	0.054232	-0.004871	-0.111238	-0.624941	0.086845	-0.273381	0.726065
04861	-1.973494	-4.893431	8.186244	-0.005418	-0.145990	-0.074434	-0.624990	0.087110	-0.273395	0.725986
04862	-1.999655	-4.950563	8.146286	-0.063144	-0.103095	-0.073383	-0.625002	0.087429	-0.273476	0.725906
04863	-2.036084	-4.993507	8.316003	-0.007402	-0.112049	0.098117	-0.624950	0.087775	-0.273599	0.725862
04864	-2.065728	-5.009992	8.443077	0.050504	-0.116970	0.219090	-0.624849	0.088094	-0.273717	0.725866
04865	-2.137251	-4.981320	8.450978	0.099644	-0.050478	0.226632	-0.624726	0.088360	-0.273810	0.725904
04866	-2.209641	-4.951363	8.459508	0.148787	0.015892	0.234172	-0.624618	0.088509	-0.273874	0.725956
04867	-2.252995	-4.998402	8.443376	0.112237	0.066966	0.253767	-0.624555	0.088614	-0.273860	0.726002
04868	-2.230847	-5.042023	8.398857	0.049802	0.063890	0.233849	-0.624529	0.088655	-0.273748	0.726062
04869	-2.182256	-4.968022	8.332315	0.070522	0.034527	0.130390	-0.624534	0.088654	-0.273530	0.726139
04870	-2.221303	-4.920588	8.215254	0.061653	0.105947	0.016949	-0.624530	0.088661	-0.273284	0.726235
04871	-2.269679	-4.865574	8.162540	0.091747	0.168530	-0.044602	-0.624498	0.088767	-0.272999	0.726357
04872	-2.312807	-4.874216	8.171508	0.096319	0.214658	-0.023650	-0.624456	0.089013	-0.272706	0.726473
04873	-2.288823	-4.882486	8.150662	0.075012	0.206877	-0.042209	-0.624400	0.089341	-0.272398	0.726596
04874	-2.256387	-4.829814	8.149809	0.114769	0.181293	-0.076583	-0.624347	0.089711	-0.272126	0.726698
04875	-2.244043	-4.866189	8.129553	0.073528	0.186374	-0.077956	-0.624321	0.090052	-0.271898	0.726764
04876	-2.231376	-4.840083	8.088286	0.075580	0.190654	-0.128486	-0.624292	0.090267	-0.271720	0.726828
04877	-2.185622	-4.892228	8.062256	0.009726	0.162615	-0.133624	-0.624268	0.090377	-0.271602	0.726879
04878	-2.152021	-4.908442	8.016597	-0.032771	0.146637	-0.170735	-0.624270	0.090372	-0.271546	0.726899
04879	-2.202472	-4.785840	8.087312	0.115120	0.165606	-0.162864	-0.624269	0.090283	-0.271559	0.726906
04880	-2.199892	-4.820587	8.065331	0.073877	0.170549	-0.164236	-0.624257	0.090228	-0.271615	0.726902
04881	-2.196913	-4.856142	8.042974	0.032637	0.175620	-0.165612	-0.624249	0.090232	-0.271671	0.726888
04882	-2.220827	-4.910765	8.045073	-0.007357	0.201485	-0.131250	-0.624235	0.090287	-0.271713	0.726878
04883	-2.261125	-4.860007	8.071775	0.058270	0.230072	-0.126121	-0.624226	0.090419	-0.271648	0.726893
04884	-2.175555	-4.832182	8.082163	0.070010	0.146303	-0.149454	-0.624272	0.090559	-0.271504	0.726890
04885	-2.068276	-4.812360	8.110742	0.078344	0.037612	-0.157991	-0.624324	0.090681	-0.271375	0.726878
04886	-2.042165	-4.890246	8.044842	-0.025218	0.039274	-0.179295	-0.624380	0.090719	-0.271291	0.726857
04887	-1.984080	-4.949552	7.995269	-0.112247	0.003144	-0.202986	-0.624417	0.090698	-0.271231	0.726850
04888	-1.994369	-4.913400	7.976339	-0.088998	0.015465	-0.234962	-0.624430	0.090635	-0.271227	0.726848
04889	-1.958011	-4.929931	7.970948	-0.113706	-0.017396	-0.238722	-0.624447	0.090601	-0.271264	0.726824
04890	-1.947164	-4.903700	7.968949	-0.093869	-0.030129	-0.255901	-0.624434	0.090610	-0.271324	0.726811
04891	-1.990914	-4.915460	8.015758	-0.071544	-0.000861	-0.201614	-0.624364	0.090690	-0.271394	0.726836
04892	-2.005722	-4.909489	8.037807	-0.050464	0.007345	-0.183059	-0.624247	0.090818	-0.271447	0.726900
04893	-2.025150	-4.903595	8.018838	-0.047157	0.032663	-0.197858	-0.624103	0.090980	-0.271485	0.726989
04894	-2.174442	-4.901563	8.059608	0.007823	0.165979	-0.133679	-0.623944	0.091159	-0.271521	0.727090
04895	-2.205510	-4.950085	8.125659	0.006777	0.183068	-0.047423	-0.623807	0.091309	-0.271542	0.727181
04896	-2.331047	-5.025343	8.100258	-0.041705	0.317887	-0.004566	-0.623696	0.091383	-0.271532	0.727271
04897	-2.453212	-5.002629	8.117798	0.012016	0.430408	0.023867	-0.623644	0.091465	-0.271434	0.727342
04898	-2.442685	-4.913405	8.055433	0.057380	0.433983	-0.075818	-0.623647	0.091564	-0.271329	0.727366
04899	-2.359466	-4.920270	8.002622	0.010252	0.372102	-0.133869	-0.623708	0.091701	-0.271303	0.727306
04900	-2.275776	-4.893696	8.011563	0.022033	0.288319	-0.157174	-0.623797	0.091860	-0.271373	0.727184
04901	-2.216702	-4.922079	8.022140	-0.006080	0.230401	-0.146134	-0.623868	0.092022	-0.271548	0.727036
04902	-2.136237	-4.925564	8.112262	0.021307	0.125535	-0.085546	-0.623901	0.092114	-0.271848	0.726884
04903	-2.148905	-4.888519	8.235192	0.119059	0.095172	0.001107	-0.623891	0.092158	-0.272271	0.726729
04904	-2.219748	-5.055859	8.278986	0.017011	0.155491	0.137495	-0.623874	0.092146	-0.272786	0.726553
04905	-2.233754	-5.116861	8.399118	0.030316	0.130587	0.271911	-0.623846	0.092068	-0.273292	0.726396
04906	-2.301565	-5.283492	8.483642	-0.053968	0.173939	0.441652	-0.623844	0.091905	-0.273764	0.726241
04907	-2.321018	-5.278737	8.543664	-0.015132	0.165342	0.493564	-0.623871	0.091644	-0.274134	0.726111
04908	-2.364121	-5.165796	8.588856	0.111552	0.176200	0.482917	-0.623927	0.091321	-0.274394	0.726005
04909	-2.424784	-5.111628	8.532516	0.141603	0.238777	0.421328	-0.624011	0.091019	-0.274539	0.725916
04910	-2.449797	-5.038454	8.493966	0.188197	0.263284	0.357379	-0.624126	0.090813	-0.274563	0.725834
04911	-2.481011	-4.929862	8.437182	0.258154	0.300141	0.261451	-0.624254	0.090777	-0.274469	0.725764
04912	-2.401069	-4.996948	8.405935	0.167731	0.238748	0.252561	-0.624414	0.090869	-0.274336	0.725665
04913	-2.358070	-5.082255	8.317074	0.042992	0.232378	0.212664	-0.624568	0.091037	-0.274155	0.725580
04914	-2.277500	-5.053256	8.287434	0.037022	0.165538	0.156023	-0.624743	0.091217	-0.273996	0.725467
04915	-2.217227	-5.113247	8.237782	-0.049981	0.129340	0.132322	-0.624887	0.091373	-0.273909	0.725356
04916	-2.142931	-5.050105	8.228926	-0.014808	0.057731	0.077074	-0.625041	0.091450	-0.273874	0.725227
04917	-2.103684	-4.998351	8.349251	0.078321	-0.018572	0.142840	-0.625187	0.091410	-0.273942	0.725081
04918	-2.068790	-5.112061	8.341496	-0.030827	-0.046178	0.186839	-0.625329	0.091208	-0.274099	0.724923
04919	-2.096431	-5.067495	8.385595	0.031371	-0.042566	0.206790	-0.625470	0.090835	-0.274295	0.724775
04920	-2.183586	-5.093187	8.415545	0.037078	0.024508	0.263423	-0.625600	0.090369	-0.274517	0.724637
04921	-2.212461	-5.143488	8.458586	0.014818	0.033552	0.331117	-0.625726	0.089873	-0.274666	0.724533
04922	-2.267016	-5.182964	8.443826	-0.021831	0.084430	0.350632	-0.625885	0.089400	-0.274669	0.724453
04923	-2.300399	-5.166895	8.387176	-0.036324	0.126702	0.302449	-0.626058	0.088993	-0.274493	0.724421
04924	-2.417557	-5.017958	8.261244	0.047217	0.263580	0.147279	-0.626252	0.088716	-0.274197	0.724399
04925	-2.311775	-4.964636	8.210388	0.040073	0.175930	0.054928	-0.626472	0.088641	-0.273807	0.724365
04926	-2.227767	-4.841578	8.079574	0.061870	0.129440	-0.134735	-0.626719	0.088687	-0.273451	0.724281
04927	-2.121997	-4.853924	8.047778	0.011416	0.042444	-0.177946	-0.626935	0.088770	-0.273209	0.724175
04928	-2.076442	-4.842233	8.001674	-0.011082	0.013485	-0.232222	-0.627140	0.088837	-0.273112	0.724026
04929	-2.034002	-4.859314	8.037751	-0.017980	-0.036343	-0.202594	-0.627320	0.088850	-0.273130	0.723861
04930	-2.067516	-4.939326	8.082339	-0.060219	-0.014608	-0.117744	-0.627510	0.088722	-0.273215	0.723680
04931	-2.016974	-5.026127	8.115124	-0.131612	-0.071878	-0.057541	-0.627733	0.088482	-0.273347	0.723467
04932	-2.003253	-5.032819	8.132496	-0.135123	-0.096814	-0.042726	-0.627949	0.088134	-0.273503	0.723263
04933	-2.034232	-5.048457	8.197806	-0.116255	-0.092518	0.026365	-0.628184	0.087773	-0.273598	0.723066
04934	-1.886371	-4.989472	8.136707	-0.127958	-0.226358	-0.086865	-0.628424	0.087467	-0.273610	0.722890
04935	-1.846049	-4.941061	8.153276	-0.091519	-0.276847	-0.106356	-0.628637	0.087209	-0.273543	0.722762
04936	-1.855523	-4.839485	8.114952	-0.024939	-0.265200	-0.187456	-0.628777	0.087022	-0.273419	0.722710
04937	-1.845442	-4.843875	8.052890	-0.063984	-0.256118	-0.239385	-0.628902	0.086969	-0.273196	0.722691
04938	-1.813666	-4.795196	7.947382	-0.080870	-0.255959	-0.359005	-0.628977	0.087017	-0.272920	0.722725
04939	-1.850915	-4.740103	7.976650	-0.015279	-0.227276	-0.353854	-0.629051	0.087106	-0.272628	0.722759
04940	-1.953156	-4.693805	7.889051	0.001564	-0.101927	-0.427947	-0.629099	0.087248	-0.272345	0.722807
04941	-1.949871	-4.727470	7.828184	-0.057453	-0.080006	-0.462729	-0.629170	0.087457	-0.272116	0.722807
04942	-1.882127	-4.761350	7.736861	-0.142219	-0.112353	-0.536965	-0.629261	0.087637	-0.271984	0.722755
04943	-1.802169	-4.831740	7.704872	-0.232564	-0.173694	-0.545848	-0.629363	0.087723	-0.272003	0.722649
04944	-1.741987	-4.894006	7.694837	-0.301741	-0.227043	-0.536172	-0.629453	0.087622	-0.272195	0.722510
04945	-1.670239	-4.860225	7.808065	-0.233116	-0.336428	-0.474067	-0.629509	0.087361	-0.272528	0.722368
04946	-1.730787	-4.897529	7.895515	-0.213056	-0.311266	-0.369262	-0.629514	0.086926	-0.272953	0.722255
04947	-1.725052	-4.871740	7.932370	-0.175405	-0.340781	-0.353024	-0.629474	0.086450	-0.273427	0.722168
04948	-1.898497	-4.822127	8.096975	-0.022789	-0.237748	-0.202216	-0.629402	0.085985	-0.273897	0.722108
04949	-2.069746	-4.780207	8.115200	0.055318	-0.091959	-0.170117	-0.629288	0.085705	-0.274242	0.722110
04950	-2.119420	-4.923544	8.096406	-0.065825	-0.035672	-0.102929	-0.629178	0.085709	-0.274404	0.722143
04951	-2.055903	-4.987514	8.086504	-0.135004	-0.088892	-0.093251	-0.629073	0.085932	-0.274396	0.722212
04952	-1.943015	-5.007558	8.092687	-0.167600	-0.192972	-0.103043	-0.628947	0.086245	-0.274333	0.722308
04953	-1.967096	-4.967069	8.054406	-0.140962	-0.155477	-0.149839	-0.628779	0.086630	-0.274299	0.722421
04954	-1.996905	-4.919859	8.120848	-0.057601	-0.143782	-0.111305	-0.628574	0.086961	-0.274337	0.722546
04955	-2.106480	-4.900760	8.217179	0.031491	-0.064966	-0.016182	-0.628313	0.087185	-0.274506	0.722681
04956	-2.209621	-4.917528	8.332033	0.097228	0.001562	0.110912	-0.628029	0.087293	-0.274760	0.722818
04957	-2.379249	-4.907237	8.392432	0.173090	0.143328	0.193521	-0.627770	0.087275	-0.275045	0.722937
04958	-2.501314	-4.886375	8.446713	0.244395	0.238967	0.255250	-0.627569	0.087175	-0.275310	0.723023
04959	-2.546162	-4.967874	8.407071	0.166553	0.294707	0.273291	-0.627442	0.087072	-0.275459	0.723089
04960	-2.564386	-4.959672	8.429366	0.187593	0.303012	0.291848	-0.627392	0.086963	-0.275467	0.723142
04961	-2.475659	-5.034694	8.334567	0.058325	0.250421	0.231014	-0.627423	0.086834	-0.275312	0.723190
04962	-2.316322	-5.010399	8.254263	0.005616	0.121264	0.116439	-0.627481	0.086707	-0.275107	0.723233
04963	-2.230171	-4.917122	8.246836	0.060897	0.036960	0.044137	-0.627501	0.086589	-0.274920	0.723301
04964	-2.196377	-4.903569	8.118994	0.002904	0.041787	-0.076910	-0.627527	0.086506	-0.274843	0.723318
04965	-2.151569	-4.858368	8.134840	0.039382	-0.008682	-0.096362	-0.627503	0.086484	-0.274884	0.723325
04966	-2.191706	-4.870184	8.222050	0.079377	0.003712	-0.008706	-0.627429	0.086511	-0.275038	0.723328
04967	-2.216112	-4.892060	8.285164	0.098212	0.008083	0.060389	-0.627321	0.086565	-0.275254	0.723332
04968	-2.259675	-4.968456	8.391352	0.094852	0.021148	0.197159	-0.627194	0.086615	-0.275481	0.723351
04969	-2.343317	-4.999264	8.378283	0.082669	0.105344	0.220331	-0.627088	0.086696	-0.275610	0.723383
04970	-2.358881	-4.993181	8.400104	0.103705	0.113654	0.238892	-0.627009	0.086766	-0.275629	0.723436
04971	-2.390458	-5.011541	8.383394	0.086974	0.151820	0.241193	-0.626969	0.086827	-0.275516	0.723506
04972	-2.414947	-5.035502	8.262917	0.013532	0.215498	0.158141	-0.626986	0.086894	-0.275278	0.723574
04973	-2.256856	-5.011799	8.141950	-0.056906	0.103300	0.010192	-0.627033	0.086955	-0.274980	0.723639
04974	-2.192757	-5.007085	8.074590	-0.100486	0.066157	-0.062630	-0.627086	0.086975	-0.274700	0.723697
04975	-2.124936	-5.002807	8.047922	-0.126284	0.012238	-0.102055	-0.627119	0.086915	-0.274506	0.723750
04976	-2.125868	-4.903321	8.050620	-0.041901	0.007032	-0.149740	-0.627115	0.086822	-0.274446	0.723787
04977	-2.143479	-4.894007	8.073813	-0.020862	0.015451	-0.131180	-0.627082	0.086710	-0.274516	0.723803
04978	-2.157111	-4.886375	8.137014	0.017957	0.006877	-0.079219	-0.627026	0.086607	-0.274662	0.723809
04979	-2.229463	-4.853519	8.186601	0.084664	0.056645	-0.038374	-0.626969	0.086543	-0.274793	0.723816
04980	-2.253132	-4.970752	8.249450	0.018992	0.066278	0.078402	-0.626917	0.086532	-0.274906	0.723819
04981	-2.207109	-5.024537	8.263007	-0.029002	0.021174	0.106652	-0.626868	0.086558	-0.274930	0.723850
04982	-2.210543	-4.989570	8.284910	0.012026	0.016643	0.108080	-0.626815	0.086549	-0.274854	0.723925
04983	-2.255733	-4.935537	8.271726	0.059791	0.062297	0.079827	-0.626755	0.086514	-0.274688	0.724044
04984	-2.305112	-4.879709	8.218533	0.089775	0.124712	0.018171	-0.626703	0.086469	-0.274415	0.724198
04985	-2.275040	-4.760457	8.198502	0.173007	0.098634	-0.065199	-0.626681	0.086435	-0.274104	0.724339
04986	-2.311229	-4.808375	8.081270	0.079564	0.175104	-0.131149	-0.626677	0.086375	-0.273758	0.724480
04987	-2.315273	-4.740674	7.982336	0.087250	0.208457	-0.247067	-0.626728	0.086335	-0.273364	0.724590
04988	-2.250677	-4.734406	7.916085	0.043694	0.171275	-0.319885	-0.626772	0.086357	-0.272975	0.724696
04989	-2.158672	-4.745427	7.762414	-0.059924	0.134741	-0.463235	-0.626852	0.086431	-0.272598	0.724759
04990	-2.072640	-4.749522	7.713265	-0.106837	0.072513	-0.521209	-0.626921	0.086510	-0.272305	0.724801
04991	-1.975494	-4.728395	7.661541	-0.133744	-0.002454	-0.596310	-0.626956	0.086622	-0.272133	0.724822
04992	-1.951382	-4.737470	7.680072	-0.137213	-0.027344	-0.581466	-0.626925	0.086774	-0.272109	0.724839
04993	-1.939084	-4.740597	7.761073	-0.101757	-0.060819	-0.514650	-0.626824	0.086935	-0.272241	0.724857
04994	-2.048456	-4.756458	7.835004	-0.053924	0.022724	-0.420993	-0.626653	0.087091	-0.272536	0.724876
04995	-2.201912	-4.749182	8.017823	0.075108	0.114032	-0.238243	-0.626463	0.087254	-0.272901	0.724883
04996	-2.282180	-4.811814	8.127282	0.096201	0.160373	-0.097769	-0.626280	0.087437	-0.273297	0.724870
04997	-2.365283	-4.936582	8.257299	0.073924	0.207494	0.091800	-0.626129	0.087581	-0.273656	0.724848
04998	-2.430064	-5.005800	8.344530	0.073863	0.245672	0.213709	-0.626040	0.087622	-0.273897	0.724829
04999	-2.478479	-5.080416	8.410525	0.052658	0.275802	0.317050	-0.626026	0.087607	-0.273965	0.724817
05000	-2.460834	-5.025660	8.367157	0.074761	0.267127	0.249386	-0.626083	0.087496	-0.273866	0.724819
05001	-2.428139	-4.879133	8.303786	0.160237	0.245070	0.115501	-0.626211	0.087340	-0.273631	0.724815
05002	-2.377493	-4.836812	8.217057	0.140064	0.220036	0.010714	-0.626354	0.087175	-0.273390	0.724803
05003	-2.347894	-4.786127	8.112154	0.123257	0.220150	-0.108926	-0.626489	0.087061	-0.273151	0.724790
05004	-2.386125	-4.800364	8.056421	0.088710	0.275021	-0.140072	-0.626615	0.087028	-0.273013	0.724737
05005	-2.299204	-4.807082	8.045668	0.059607	0.196030	-0.164622	-0.626677	0.087089	-0.273046	0.724664
05006	-2.297499	-4.872054	8.105689	0.033898	0.179983	-0.082114	-0.626688	0.087197	-0.273277	0.724554
05007	-2.373116	-4.940177	8.110809	-0.001742	0.251992	-0.027048	-0.626686	0.087343	-0.273635	0.724403
05008	-2.376328	-5.071265	8.188281	-0.070826	0.236601	0.104551	-0.626694	0.087490	-0.274052	0.724221
05009	-2.299119	-5.077529	8.277341	-0.043224	0.132101	0.165404	-0.626715	0.087564	-0.274447	0.724044
05010	-2.367822	-5.049271	8.365213	0.041197	0.164977	0.239655	-0.626776	0.087601	-0.274753	0.723871
05011	-2.482795	-5.001497	8.377193	0.114549	0.264894	0.250777	-0.626843	0.087692	-0.274900	0.723746
05012	-2.450935	-5.012984	8.476506	0.146627	0.206326	0.332468	-0.626925	0.087806	-0.274851	0.723680
05013	-2.380198	-4.949120	8.427783	0.164267	0.151709	0.243985	-0.627033	0.087919	-0.274653	0.723647
05014	-2.358365	-5.018114	8.468388	0.117411	0.127481	0.307931	-0.627161	0.087985	-0.274408	0.723621
05015	-2.290300	-5.013983	8.441534	0.091684	0.073517	0.268542	-0.627315	0.087996	-0.274181	0.723572
05016	-2.257060	-5.034647	8.251038	-0.025187	0.099598	0.112586	-0.627493	0.087955	-0.274050	0.723473
05017	-2.176428	-5.039634	8.199749	-0.072040	0.037431	0.054634	-0.627669	0.087899	-0.274003	0.723345
05018	-2.120952	-4.967198	8.214300	-0.015478	-0.025986	0.018147	-0.627811	0.087828	-0.274028	0.723221
05019	-2.116952	-4.939717	8.171449	-0.013357	-0.021723	-0.032390	-0.627922	0.087759	-0.274123	0.723097
05020	-2.130722	-4.932560	8.234396	0.025434	-0.030227	0.019598	-0.627982	0.087727	-0.274261	0.722996
05021	-2.192416	-4.901289	8.366010	0.127628	-0.014008	0.127281	-0.627994	0.087712	-0.274422	0.722926
05022	-2.247211	-4.974795	8.390943	0.088590	0.032851	0.197185	-0.627995	0.087699	-0.274572	0.722870
05023	-2.314573	-4.977527	8.418735	0.114069	0.087388	0.236565	-0.628018	0.087713	-0.274662	0.722815
05024	-2.379734	-5.076218	8.446147	0.055006	0.147089	0.323577	-0.628096	0.087719	-0.274623	0.722761
05025	-2.299695	-5.109196	8.478452	0.023712	0.064098	0.349594	-0.628219	0.087650	-0.274452	0.722727
05026	-2.217318	-5.076516	8.492227	0.035790	-0.019688	0.326531	-0.628396	0.087378	-0.274145	0.722722
05027	-2.136431	-5.047400	8.361227	-0.026586	-0.061063	0.184625	-0.628610	0.086938	-0.273801	0.722721
05028	-2.152256	-4.938551	8.285554	0.022254	-0.032570	0.070143	-0.628820	0.086356	-0.273456	0.722738
05029	-2.159660	-4.864876	8.229077	0.047743	-0.016130	-0.012366	-0.629021	0.085811	-0.273137	0.722749
05030	-2.143261	-4.774441	8.106275	0.054330	-0.004044	-0.163979	-0.629208	0.085398	-0.272881	0.722731
05031	-2.173318	-4.758332	8.050215	0.039783	0.038067	-0.212272	-0.629393	0.085107	-0.272721	0.722665
05032	-2.137422	-4.736353	8.109989	0.074115	-0.016473	-0.181085	-0.629576	0.084963	-0.272627	0.722558
05033	-2.071555	-4.795784	8.143573	0.022825	-0.086639	-0.137945	-0.629735	0.084927	-0.272601	0.722433
05034	-2.010901	-4.856613	8.135106	-0.046258	-0.140116	-0.128236	-0.629883	0.084905	-0.272651	0.722288
05035	-2.044644	-4.937136	8.179443	-0.088649	-0.118148	-0.043483	-0.629987	0.084883	-0.272752	0.722162
05036	-2.060091	-4.956616	8.326065	-0.034326	-0.147398	0.092487	-0.630048	0.084806	-0.272852	0.722080
05037	-2.120317	-4.895205	8.374917	0.052301	-0.110311	0.116215	-0.630082	0.084667	-0.272906	0.722046
05038	-2.166081	-4.868100	8.485222	0.133328	-0.102338	0.205348	-0.630124	0.084496	-0.272868	0.722043
05039	-2.273384	-4.786050	8.458216	0.208850	0.001615	0.165906	-0.630170	0.084287	-0.272801	0.722053
05040	-2.213639	-4.843722	8.451428	0.139767	-0.051855	0.175618	-0.630260	0.084066	-0.272701	0.722038
05041	-2.229835	-4.900316	8.392250	0.060698	-0.017305	0.157826	-0.630422	0.083806	-0.272523	0.721994
05042	-2.118562	-4.919350	8.297364	-0.028358	-0.096077	0.062763	-0.630598	0.083512	-0.272286	0.721964
05043	-2.052462	-4.981871	8.187924	-0.154102	-0.124043	-0.012963	-0.630812	0.083233	-0.271970	0.721929
05044	-1.938220	-4.964293	8.157355	-0.184217	-0.224254	-0.073123	-0.630985	0.082940	-0.271571	0.721961
05045	-1.851633	-4.866879	8.152099	-0.128674	-0.308572	-0.145217	-0.631096	0.082653	-0.271135	0.722061
05046	-1.940540	-4.823125	8.043518	-0.133221	-0.191535	-0.238140	-0.631153	0.082399	-0.270702	0.722203
05047	-2.009693	-4.719271	8.036330	-0.041018	-0.125448	-0.279820	-0.631136	0.082256	-0.270342	0.722369
05048	-2.172981	-4.671018	8.019179	0.018878	0.037306	-0.281384	-0.631046	0.082219	-0.270026	0.722570
05049	-2.240693	-4.607136	7.947542	0.052144	0.124812	-0.357978	-0.630928	0.082370	-0.269757	0.722756
05050	-2.265339	-4.651188	8.057501	0.068642	0.125274	-0.238335	-0.630811	0.082537	-0.269582	0.722904
05051	-2.295018	-4.705469	7.979284	-0.007096	0.184806	-0.271025	-0.630718	0.082787	-0.269456	0.723004
05052	-2.338086	-4.681065	8.048441	0.056129	0.209638	-0.215328	-0.630659	0.083016	-0.269352	0.723068
05053	-2.412598	-4.745478	8.016981	0.002589	0.298451	-0.193795	-0.630646	0.083293	-0.269269	0.723078
05054	-2.336612	-4.747581	8.028813	-0.005295	0.227512	-0.199711	-0.630670	0.083637	-0.269164	0.723057
05055	-2.219362	-4.705888	8.014292	0.005786	0.122785	-0.258384	-0.630710	0.084058	-0.269073	0.723007
05056	-2.105894	-4.849759	8.104605	-0.095555	0.003115	-0.136406	-0.630730	0.084407	-0.268948	0.722995
05057	-2.095648	-4.746106	8.292264	0.081128	-0.060801	-0.031653	-0.630734	0.084663	-0.268825	0.723007
05058	-2.158348	-4.686736	8.259529	0.132151	0.009807	-0.074812	-0.630669	0.084936	-0.268737	0.723065
05059	-2.085113	-4.750944	8.292149	0.080895	-0.060364	-0.031649	-0.630538	0.085236	-0.268672	0.723168
05060	-2.164414	-4.719837	8.219302	0.094097	0.039865	-0.091163	-0.630406	0.085604	-0.268616	0.723260
05061	-2.188488	-4.804328	8.264258	0.051660	0.061859	-0.006439	-0.630289	0.086046	-0.268564	0.723329
05062	-2.178642	-4.879879	8.179263	-0.048549	0.088006	-0.042839	-0.630193	0.086527	-0.268502	0.723379
05063	-2.190701	-4.849739	8.076529	-0.060860	0.134020	-0.141711	-0.630117	0.087044	-0.268429	0.723410
05064	-2.210091	-4.749626	8.016702	0.009115	0.170721	-0.237630	-0.630037	0.087609	-0.268378	0.723430
05065	-2.206853	-4.756163	7.974098	-0.008780	0.187766	-0.271084	-0.629985	0.088230	-0.268355	0.723409
05066	-2.217845	-4.719746	8.016844	0.053354	0.191561	-0.251041	-0.629963	0.088862	-0.268359	0.723349
05067	-2.214165	-4.823775	7.973220	-0.049098	0.213852	-0.236915	-0.629966	0.089449	-0.268348	0.723278
05068	-2.125480	-4.856944	8.148236	-0.005861	0.088634	-0.091915	-0.629994	0.089960	-0.268350	0.723189
05069	-2.080922	-4.968558	8.286769	-0.040510	0.018814	0.070902	-0.630032	0.090250	-0.268390	0.723105
05070	-2.029984	-5.085649	8.361697	-0.114065	-0.042586	0.181701	-0.630112	0.090267	-0.268421	0.723022
05071	-2.112853	-5.049987	8.331213	-0.083088	0.040970	0.155615	-0.630204	0.090052	-0.268440	0.722961
05072	-2.164888	-4.897269	8.318613	0.049148	0.081323	0.079748	-0.630272	0.089782	-0.268426	0.722941
05073	-2.214781	-4.841542	8.305484	0.096835	0.127036	0.051457	-0.630337	0.089620	-0.268364	0.722928
05074	-2.275066	-4.716269	8.294711	0.209026	0.180227	-0.007323	-0.630363	0.089617	-0.268240	0.722951
05075	-2.306141	-4.636628	8.280263	0.276754	0.213111	-0.052700	-0.630379	0.089877	-0.268041	0.722979
05076	-2.248641	-4.725757	8.273881	0.187672	0.172417	-0.025894	-0.630424	0.090287	-0.267815	0.722973
05077	-2.241888	-4.762752	8.212363	0.128623	0.194041	-0.060838	-0.630478	0.090752	-0.267548	0.722966
05078	-2.152368	-4.799727	8.243780	0.097415	0.110912	-0.034743	-0.630553	0.091219	-0.267309	0.722930
05079	-2.099562	-4.889368	8.195835	-0.009428	0.087086	-0.041397	-0.630640	0.091612	-0.267104	0.722880
05080	-1.965774	-4.923714	8.073281	-0.119465	-0.000111	-0.155006	-0.630749	0.091863	-0.266972	0.722802
05081	-1.986567	-4.950456	7.993126	-0.175187	0.046503	-0.204843	-0.630865	0.091988	-0.266887	0.722717
05082	-2.004995	-4.906442	8.038567	-0.113057	0.050322	-0.184789	-0.630930	0.091972	-0.266815	0.722688
05083	-2.039685	-4.949828	8.106789	-0.114375	0.067745	-0.098601	-0.630980	0.091837	-0.266749	0.722686
05084	-2.172865	-4.851162	8.169649	0.021024	0.171367	-0.067511	-0.631040	0.091587	-0.266620	0.722713
05085	-2.144832	-4.793745	8.209590	0.078791	0.129221	-0.068214	-0.631110	0.091385	-0.266476	0.722731
05086	-2.244709	-4.808589	8.225630	0.087407	0.221569	-0.026702	-0.631210	0.091246	-0.266316	0.722720
05087	-2.263488	-4.734550	8.188848	0.134028	0.246200	-0.090651	-0.631367	0.091236	-0.266126	0.722654
05088	-2.156679	-4.713635	8.217741	0.142940	0.137404	-0.098699	-0.631585	0.091369	-0.265891	0.722533
05089	-1.931535	-4.850387	8.124389	-0.062621	-0.040617	-0.155711	-0.631813	0.091557	-0.265615	0.722411
05090	-1.778067	-4.891090	8.020633	-0.175932	-0.152882	-0.254418	-0.632023	0.091748	-0.265379	0.722290
05091	-1.676487	-4.898645	8.091148	-0.169251	-0.265488	-0.211913	-0.632144	0.091854	-0.265247	0.722219
05092	-1.675457	-4.898552	8.091417	-0.169367	-0.265342	-0.211911	-0.632188	0.091884	-0.265246	0.722177
05093	-1.745049	-4.864949	8.142749	-0.102854	-0.215282	-0.171092	-0.632164	0.091846	-0.265366	0.722159
05094	-1.886750	-4.833022	8.182557	-0.028682	-0.094218	-0.124423	-0.632112	0.091843	-0.265556	0.722135
05095	-2.025011	-4.864356	8.283724	0.019855	0.010872	0.004756	-0.632064	0.091889	-0.265755	0.722098
05096	-2.211308	-4.905030	8.392301	0.072728	0.161961	0.154679	-0.632069	0.092005	-0.265832	0.722051
05097	-2.213108	-4.871178	8.413665	0.113764	0.157677	0.156172	-0.632179	0.092168	-0.265704	0.721981
05098	-2.094218	-4.957509	8.376759	-0.000751	0.062575	0.143658	-0.632355	0.092334	-0.265457	0.721896
05099	-2.008854	-4.963053	8.325524	-0.047411	0.000207	0.085772	-0.632583	0.092505	-0.265103	0.721805
05100	-1.870828	-4.993434	8.245941	-0.139586	-0.103827	0.005645	-0.632810	0.092597	-0.264761	0.721719
05101	-1.769417	-4.971450	8.234136	-0.148394	-0.195771	-0.035837	-0.632990	0.092588	-0.264531	0.721647
05102	-1.736754	-4.853791	8.252320	-0.047183	-0.238655	-0.085549	-0.633117	0.092468	-0.264487	0.721567
05103	-1.844992	-4.773980	8.226412	0.028206	-0.134645	-0.125076	-0.633144	0.092362	-0.264599	0.721516
05104	-1.861935	-4.758812	8.394311	0.123630	-0.168129	0.012484	-0.633091	0.092272	-0.264862	0.721478
05105	-1.932024	-4.762620	8.421870	0.148961	-0.113471	0.051799	-0.633029	0.092189	-0.265220	0.721411
05106	-2.069970	-4.829966	8.500241	0.156282	-0.003879	0.179460	-0.632941	0.092143	-0.265563	0.721368
05107	-2.160692	-4.825487	8.509838	0.184913	0.075793	0.203865	-0.632898	0.092126	-0.265807	0.721318
05108	-2.187474	-4.907932	8.594862	0.160165	0.080997	0.322019	-0.632896	0.092132	-0.265873	0.721295
05109	-2.184582	-4.845082	8.574460	0.203480	0.080631	0.272980	-0.633004	0.092116	-0.265693	0.721268
05110	-1.965320	-5.014607	8.418728	-0.060928	-0.076352	0.181021	-0.633209	0.091984	-0.265371	0.721224
05111	-1.958830	-4.953026	8.297079	-0.074266	-0.051561	0.046461	-0.633460	0.091683	-0.264953	0.721195
05112	-1.963789	-4.784060	8.241037	0.035844	-0.040514	-0.083584	-0.633718	0.091313	-0.264539	0.721167
05113	-1.888705	-4.720603	8.130190	0.014871	-0.086851	-0.223969	-0.633911	0.090905	-0.264226	0.721164
05114	-1.868315	-4.659508	8.130450	0.054877	-0.112335	-0.258097	-0.634075	0.090480	-0.264073	0.721130
05115	-1.907861	-4.671519	8.116368	0.038011	-0.074239	-0.255936	-0.634157	0.090079	-0.264092	0.721101
05116	-1.958434	-4.677396	8.164719	0.060000	-0.044671	-0.201728	-0.634198	0.089711	-0.264271	0.721044
05117	-1.987533	-4.694315	8.229507	0.078698	-0.040006	-0.132611	-0.634193	0.089466	-0.264500	0.720996
05118	-2.014116	-4.783583	8.209579	-0.002718	-0.009640	-0.099994	-0.634143	0.089353	-0.264731	0.720969
05119	-1.999132	-4.883074	8.330413	-0.034069	-0.054324	0.047973	-0.634081	0.089366	-0.264884	0.720966
05120	-2.005176	-5.008880	8.371622	-0.121075	-0.052848	0.146038	-0.634023	0.089468	-0.264895	0.721000
05121	-2.051511	-4.991653	8.295289	-0.132368	0.014139	0.082735	-0.634011	0.089575	-0.264727	0.721059
05122	-2.077863	-5.069558	8.343623	-0.174919	0.036082	0.167397	-0.634034	0.089664	-0.264384	0.721154
05123	-2.002216	-4.967267	8.358771	-0.098058	-0.039948	0.114067	-0.634118	0.089618	-0.263910	0.721259
05124	-1.865386	-4.897689	8.281880	-0.105546	-0.149244	-0.013547	-0.634203	0.089461	-0.263471	0.721364
05125	-1.848916	-4.898422	8.263616	-0.126739	-0.157269	-0.032117	-0.634298	0.089109	-0.263113	0.721455
05126	-1.866739	-4.854142	8.207753	-0.121272	-0.128209	-0.097572	-0.634352	0.088595	-0.262837	0.721571
05127	-1.917988	-4.792194	8.197721	-0.073624	-0.082470	-0.125882	-0.634371	0.088032	-0.262634	0.721697
05128	-1.982055	-4.757845	8.188610	-0.046061	-0.023992	-0.137137	-0.634334	0.087523	-0.262503	0.721839
05129	-2.128529	-4.655250	8.169232	0.053646	0.113345	-0.173050	-0.634269	0.087184	-0.262396	0.721977
05130	-2.175746	-4.696290	8.156670	0.016674	0.164178	-0.153855	-0.634171	0.087098	-0.262289	0.722112
05131	-2.146033	-4.677625	8.132720	0.015552	0.143323	-0.189487	-0.634090	0.087180	-0.262172	0.722216
05132	-2.182374	-4.722394	8.160294	-0.003639	0.177454	-0.136807	-0.634017	0.087377	-0.262043	0.722303
05133	-2.127530	-4.688270	8.069945	-0.023551	0.152168	-0.241556	-0.633994	0.087619	-0.261888	0.722350
05134	-2.046277	-4.688980	8.122071	-0.013487	0.064529	-0.213861	-0.633992	0.087826	-0.261810	0.722355
05135	-2.015902	-4.673037	8.096651	-0.014602	0.043668	-0.249489	-0.634000	0.087969	-0.261834	0.722322
05136	-2.023060	-4.754048	8.306041	0.013974	-0.001145	-0.030875	-0.633994	0.088009	-0.261978	0.722269
05137	-2.020741	-4.782172	8.429001	0.047142	-0.038121	0.086653	-0.633940	0.087880	-0.262218	0.722245
05138	-2.153265	-4.819595	8.465928	0.056614	0.075452	0.163689	-0.633855	0.087647	-0.262511	0.722243
05139	-2.265409	-4.865006	8.520665	0.062796	0.164123	0.255640	-0.633772	0.087375	-0.262774	0.722252
05140	-2.358117	-4.759812	8.530944	0.175939	0.238585	0.232494	-0.633700	0.087216	-0.262923	0.722280
05141	-2.391708	-4.716409	8.492237	0.202484	0.276040	0.185596	-0.633657	0.087169	-0.263001	0.722295
05142	-2.350894	-4.743766	8.381296	0.121331	0.267980	0.096379	-0.633654	0.087226	-0.263010	0.722288
05143	-2.176564	-4.761433	8.356678	0.063896	0.109383	0.047672	-0.633676	0.087335	-0.262979	0.722267
05144	-2.073239	-4.779688	8.320996	0.014034	0.021811	0.004748	-0.633681	0.087402	-0.263006	0.722245
05145	-2.045549	-4.860138	8.295496	-0.071685	0.006107	0.016620	-0.633668	0.087361	-0.263106	0.722225
05146	-2.110197	-4.896158	8.303333	-0.087608	0.065239	0.054364	-0.633628	0.087188	-0.263236	0.722233
05147	-2.171622	-4.833706	8.352111	-0.001123	0.102633	0.078110	-0.633594	0.086899	-0.263379	0.722246
05148	-2.205636	-4.849473	8.376566	-0.000260	0.123953	0.113728	-0.633551	0.086554	-0.263487	0.722285
05149	-2.252565	-4.793197	8.403292	0.065146	0.153039	0.118900	-0.633536	0.086151	-0.263515	0.722336
05150	-2.306492	-4.771496	8.327437	0.053807	0.219885	0.055546	-0.633572	0.085806	-0.263461	0.722366
05151	-2.234843	-4.775201	8.235345	-0.010521	0.174061	-0.035799	-0.633649	0.085514	-0.263313	0.722387
05152	-2.197023	-4.725458	8.211176	0.008446	0.140273	-0.088464	-0.633736	0.085246	-0.263123	0.722411
05153	-2.132850	-4.693904	8.099883	-0.032501	0.106608	-0.211778	-0.633858	0.085012	-0.262953	0.722393
05154	-2.115924	-4.636974	8.056996	-0.010240	0.097806	-0.279368	-0.633911	0.084832	-0.262864	0.722401
05155	-2.123022	-4.635186	8.016747	-0.028137	0.114742	-0.312874	-0.633922	0.084758	-0.262850	0.722405
05156	-2.138330	-4.590509	8.101587	0.051755	0.102072	-0.259267	-0.633924	0.084711	-0.262954	0.722371
05157	-2.146889	-4.618649	8.142923	0.049342	0.098496	-0.208724	-0.633904	0.084760	-0.263135	0.722317
05158	-2.155113	-4.648143	8.183579	0.046913	0.094824	-0.158180	-0.633889	0.084843	-0.263330	0.722249
05159	-2.153797	-4.713139	8.244015	0.021124	0.079082	-0.075665	-0.633901	0.084957	-0.263501	0.722162
05160	-2.104606	-4.707090	8.235444	0.016732	0.033116	-0.096349	-0.633944	0.085086	-0.263577	0.722082
05161	-2.100936	-4.770138	8.297577	-0.009058	0.017376	-0.013833	-0.633991	0.085205	-0.263509	0.722051
05162	-1.940251	-4.751490	8.213960	-0.060823	-0.112546	-0.127957	-0.634080	0.085246	-0.263324	0.722036
05163	-1.891413	-4.775984	8.146448	-0.124136	-0.137271	-0.183678	-0.634149	0.085209	-0.263171	0.722035
05164	-1.838566	-4.800309	8.119603	-0.169674	-0.178757	-0.205893	-0.634171	0.085103	-0.263115	0.722049
05165	-1.851012	-4.789540	8.184136	-0.130925	-0.186815	-0.153806	-0.634136	0.084898	-0.263172	0.722083
05166	-1.957883	-4.770895	8.218642	-0.081371	-0.098837	-0.110913	-0.634039	0.084626	-0.263326	0.722145
05167	-2.115697	-4.664829	8.258597	0.057071	0.030250	-0.094815	-0.633890	0.084360	-0.263536	0.722230
05168	-2.249390	-4.630090	8.378609	0.166533	0.118259	0.018734	-0.633738	0.084194	-0.263761	0.722300
05169	-2.319808	-4.667333	8.344411	0.132788	0.194156	0.022930	-0.633606	0.084140	-0.263889	0.722375
05170	-2.399797	-4.633834	8.312421	0.163562	0.277648	-0.003307	-0.633512	0.084216	-0.263867	0.722457
05171	-2.345398	-4.697211	8.222450	0.059087	0.257389	-0.060579	-0.633480	0.084448	-0.263751	0.722500
05172	-2.233917	-4.750961	8.167522	-0.031859	0.174230	-0.105007	-0.633478	0.084695	-0.263541	0.722550
05173	-2.090721	-4.714778	8.212613	-0.005861	0.027751	-0.114932	-0.633467	0.084845	-0.263364	0.722606
05174	-2.076925	-4.713713	8.295733	0.029587	-0.005364	-0.047905	-0.633448	0.084844	-0.263275	0.722656
05175	-2.102656	-4.668665	8.299257	0.073914	0.015423	-0.061300	-0.633408	0.084694	-0.263312	0.722695
05176	-2.237267	-4.668247	8.358199	0.124397	0.124591	0.017184	-0.633359	0.084446	-0.263477	0.722707
05177	-2.237815	-4.667142	8.398109	0.142068	0.108228	0.050698	-0.633337	0.084150	-0.263664	0.722693
05178	-2.306310	-4.604249	8.405145	0.210711	0.162258	0.040937	-0.633351	0.083874	-0.263790	0.722666
05179	-2.263399	-4.629325	8.335812	0.147410	0.137498	-0.014792	-0.633399	0.083701	-0.263846	0.722624
05180	-2.127712	-4.698305	8.234524	0.014363	0.037617	-0.096362	-0.633468	0.083623	-0.263791	0.722592
05181	-2.050168	-4.670373	8.203787	0.009057	-0.029430	-0.152628	-0.633523	0.083648	-0.263707	0.722572
05182	-1.976013	-4.740682	8.132487	-0.098686	-0.074823	-0.194959	-0.633553	0.083742	-0.263607	0.722571
05183	-1.901200	-4.714570	8.060433	-0.121769	-0.125244	-0.284740	-0.633536	0.083893	-0.263511	0.722604
05184	-1.899756	-4.751564	7.998240	-0.180838	-0.103976	-0.319808	-0.633483	0.084088	-0.263461	0.722646
05185	-1.923029	-4.735353	8.084882	-0.121040	-0.103640	-0.249135	-0.633398	0.084228	-0.263447	0.722709
05186	-1.957508	-4.710142	8.235324	-0.022412	-0.111665	-0.126364	-0.633284	0.084339	-0.263477	0.722785
05187	-2.000192	-4.720461	8.282547	-0.000508	-0.081867	-0.072184	-0.633151	0.084361	-0.263490	0.722894
05188	-2.080107	-4.686491	8.250901	0.030240	0.001624	-0.098446	-0.632984	0.084300	-0.263539	0.723029
05189	-2.269808	-4.661032	8.296901	0.108287	0.169252	-0.031305	-0.632841	0.084226	-0.263523	0.723169
05190	-2.349201	-4.625951	8.266032	0.139023	0.252747	-0.057573	-0.632722	0.084215	-0.263446	0.723303
05191	-2.321084	-4.643698	8.179674	0.079007	0.252930	-0.128256	-0.632650	0.084278	-0.263359	0.723390
05192	-2.281702	-4.661325	8.175271	0.054551	0.219767	-0.131887	-0.632624	0.084361	-0.263293	0.723427
05193	-2.170978	-4.653127	8.097651	0.007161	0.135980	-0.225292	-0.632627	0.084470	-0.263324	0.723401
05194	-2.104349	-4.752318	8.067276	-0.102883	0.086737	-0.217082	-0.632621	0.084600	-0.263442	0.723348
05195	-2.032578	-4.719808	8.138496	-0.051526	-0.005212	-0.187700	-0.632577	0.084700	-0.263703	0.723279
05196	-2.039642	-4.715647	8.240119	0.004977	-0.029911	-0.102069	-0.632485	0.084805	-0.264038	0.723225
05197	-2.113364	-4.845684	8.308825	-0.056839	0.026189	0.035135	-0.632349	0.084922	-0.264409	0.723195
05198	-2.211649	-4.931535	8.380813	-0.074246	0.102728	0.158941	-0.632194	0.085019	-0.264681	0.723219
05199	-2.277490	-4.926816	8.553988	0.025312	0.116059	0.317321	-0.632039	0.085061	-0.264823	0.723298
05200	-2.391049	-4.912026	8.505278	0.039182	0.237353	0.293103	-0.631903	0.085050	-0.264830	0.723415
05201	-2.496661	-4.859156	8.561627	0.129798	0.321074	0.337497	-0.631837	0.084998	-0.264693	0.723529
05202	-2.549022	-4.742628	8.445083	0.185266	0.399348	0.193094	-0.631850	0.084996	-0.264437	0.723612
05203	-2.468714	-4.712174	8.416474	0.180002	0.332281	0.136853	-0.631943	0.084990	-0.264175	0.723627
05204	-2.329864	-4.681327	8.316804	0.131688	0.227179	0.007871	-0.632100	0.084932	-0.263996	0.723562
05205	-2.268601	-4.739953	8.309975	0.062832	0.173568	0.017639	-0.632262	0.084811	-0.263981	0.723441
05206	-2.235480	-4.755779	8.304846	0.038386	0.140389	0.014016	-0.632410	0.084617	-0.264115	0.723285
05207	-2.146293	-4.798891	8.311582	-0.013613	0.048979	0.021728	-0.632536	0.084390	-0.264401	0.723096
05208	-2.195008	-4.844333	8.335199	-0.032926	0.083153	0.074332	-0.632626	0.084155	-0.264767	0.722911
05209	-2.196438	-4.810741	8.435131	0.043697	0.045788	0.142964	-0.632696	0.083993	-0.265152	0.722728
05210	-2.215750	-4.840052	8.433409	0.023448	0.058777	0.159976	-0.632764	0.083898	-0.265469	0.722563
05211	-2.186232	-4.921979	8.447370	-0.044469	0.026350	0.205340	-0.632847	0.083922	-0.265669	0.722414
05212	-2.220380	-4.906346	8.491539	-0.002510	0.043282	0.242494	-0.632936	0.083956	-0.265746	0.722303
05213	-2.203369	-4.783422	8.530235	0.119939	0.009069	0.211603	-0.633023	0.084063	-0.265703	0.722231
05214	-2.145268	-4.748273	8.481229	0.117950	-0.033142	0.140428	-0.633128	0.084188	-0.265614	0.722156
05215	-2.114856	-4.730472	8.457187	0.116910	-0.054056	0.104842	-0.633259	0.084315	-0.265492	0.722072
05216	-2.026255	-4.738113	8.446736	0.088291	-0.133411	0.080602	-0.633420	0.084373	-0.265361	0.721972
05217	-1.916227	-4.824050	8.370999	-0.043677	-0.212194	0.034651	-0.633592	0.084278	-0.265256	0.721871
05218	-1.869249	-4.917861	8.219907	-0.207053	-0.211727	-0.057760	-0.633756	0.084014	-0.265187	0.721783
05219	-1.842799	-4.833970	8.175227	-0.164583	-0.233308	-0.142321	-0.633883	0.083650	-0.265170	0.721720
05220	-1.899118	-4.742109	8.182120	-0.075864	-0.192034	-0.169104	-0.633946	0.083292	-0.265284	0.721664
05221	-1.973162	-4.678917	8.148301	-0.025038	-0.121263	-0.212421	-0.633961	0.083041	-0.265470	0.721611
05222	-2.051007	-4.705958	8.218800	-0.002281	-0.070293	-0.122672	-0.633951	0.082931	-0.265701	0.721548
05223	-2.130579	-4.699427	8.309929	0.061652	-0.023649	-0.031351	-0.633913	0.082959	-0.265902	0.721504
05224	-2.175708	-4.808292	8.355747	-0.001186	0.011200	0.070215	-0.633904	0.083059	-0.266011	0.721461
05225	-2.152264	-4.783518	8.435289	0.054398	-0.034500	0.120300	-0.633910	0.083163	-0.266006	0.721445
05226	-2.101489	-4.775293	8.428787	0.050098	-0.080492	0.099685	-0.633973	0.083241	-0.265952	0.721400
05227	-2.020901	-4.818947	8.314682	-0.055215	-0.122183	0.006795	-0.634046	0.083232	-0.265864	0.721370
05228	-1.931259	-4.764175	8.282842	-0.040295	-0.202197	-0.066401	-0.634109	0.083130	-0.265808	0.721347
05229	-1.924297	-4.806673	8.157144	-0.138182	-0.172750	-0.153646	-0.634132	0.082953	-0.265808	0.721347
05230	-1.873196	-4.795671	8.192117	-0.124681	-0.235325	-0.140708	-0.634112	0.082695	-0.265887	0.721365
05231	-1.953131	-4.759151	8.201029	-0.076209	-0.168316	-0.133485	-0.634034	0.082394	-0.266082	0.721396
05232	-2.108368	-4.785487	8.218674	-0.063851	-0.029579	-0.071653	-0.633929	0.082093	-0.266327	0.721432
05233	-2.257558	-4.715157	8.276826	0.050974	0.087609	-0.023671	-0.633838	0.081924	-0.266496	0.721469
05234	-2.283424	-4.733251	8.341385	0.069538	0.092443	0.045457	-0.633762	0.081880	-0.266564	0.721515
05235	-2.311731	-4.750727	8.366010	0.070328	0.113934	0.081033	-0.633751	0.081885	-0.266459	0.721563
05236	-2.237946	-4.661175	8.233075	0.073071	0.079218	-0.091224	-0.633782	0.081986	-0.266209	0.721617
05237	-2.058083	-4.650266	8.129612	0.000640	-0.059306	-0.223748	-0.633845	0.082102	-0.265934	0.721650
05238	-1.902113	-4.657203	8.091272	-0.053105	-0.193271	-0.287139	-0.633898	0.082185	-0.265761	0.721658
05239	-1.847345	-4.683091	8.064418	-0.098527	-0.234788	-0.309318	-0.633907	0.082204	-0.265739	0.721656
05240	-1.860864	-4.612827	8.065300	-0.034098	-0.226845	-0.339703	-0.633862	0.082138	-0.265842	0.721665
05241	-1.878130	-4.666739	8.149461	-0.038894	-0.234084	-0.238596	-0.633742	0.082012	-0.266066	0.721702
05242	-1.950172	-4.694876	8.260387	0.001607	-0.199605	-0.115308	-0.633563	0.081839	-0.266346	0.721776
05243	-2.059341	-4.802501	8.376216	-0.018285	-0.126613	0.058966	-0.633384	0.081671	-0.266567	0.721870
05244	-2.122728	-4.900470	8.445437	-0.060129	-0.083319	0.179080	-0.633207	0.081538	-0.266667	0.722003
05245	-2.162064	-4.918131	8.387697	-0.094920	-0.028704	0.147541	-0.633051	0.081470	-0.266607	0.722170
05246	-2.123449	-4.837004	8.384107	-0.034640	-0.066931	0.096561	-0.632898	0.081446	-0.266428	0.722373
05247	-2.133916	-4.702981	8.324763	0.055524	-0.042986	-0.016343	-0.632716	0.081515	-0.266172	0.722619
05248	-2.147205	-4.666626	8.225010	0.043205	0.002485	-0.115430	-0.632536	0.081644	-0.265876	0.722871
05249	-2.158266	-4.595176	8.187542	0.089854	0.027075	-0.179371	-0.632354	0.081832	-0.265580	0.723118
05250	-2.123296	-4.576614	8.165223	0.088839	0.006051	-0.214942	-0.632149	0.081959	-0.265324	0.723376
05251	-2.213378	-4.630010	8.158183	0.055826	0.103103	-0.175352	-0.631922	0.082036	-0.265189	0.723615
05252	-2.322377	-4.711049	8.110967	-0.015133	0.229443	-0.152339	-0.631672	0.082069	-0.265117	0.723856
05253	-2.385800	-4.712374	8.140203	0.009910	0.284330	-0.113178	-0.631404	0.082073	-0.265127	0.724086
05254	-2.512073	-4.749997	8.176849	0.018923	0.398151	-0.036443	-0.631156	0.082037	-0.265172	0.724290
05255	-2.495532	-4.760153	8.153353	-0.002225	0.390005	-0.055034	-0.630941	0.082031	-0.265225	0.724459
05256	-2.523286	-4.779530	8.177128	-0.001474	0.411434	-0.019475	-0.630768	0.082043	-0.265277	0.724589
05257	-2.473679	-4.771455	8.170179	-0.005718	0.365511	-0.040069	-0.630592	0.082007	-0.265332	0.724726
05258	-2.494575	-4.728474	8.213231	0.056343	0.369745	-0.019902	-0.630408	0.081946	-0.265436	0.724855
05259	-2.646205	-4.696461	8.168032	0.094322	0.524508	-0.040692	-0.630230	0.081887	-0.265512	0.724988
05260	-2.698968	-4.635658	8.257050	0.198429	0.545597	0.016635	-0.630077	0.081871	-0.265515	0.725122
05261	-2.756821	-4.610313	8.243332	0.225804	0.604236	0.005229	-0.629967	0.081870	-0.265463	0.725237
05262	-2.770748	-4.698207	8.267302	0.161991	0.617885	0.071160	-0.629948	0.081850	-0.265378	0.725287
05263	-2.711579	-4.721909	8.282383	0.134368	0.559809	0.082540	-0.630022	0.081779	-0.265230	0.725285
05264	-2.634122	-4.691423	8.253408	0.129232	0.492552	0.026392	-0.630172	0.081679	-0.265084	0.725218
05265	-2.488019	-4.695645	8.174028	0.057815	0.375132	-0.070512	-0.630358	0.081560	-0.265002	0.725101
05266	-2.309926	-4.682574	8.110430	0.003299	0.219831	-0.169400	-0.630556	0.081440	-0.265016	0.724937
05267	-2.178096	-4.715366	8.031216	-0.088248	0.115201	-0.249312	-0.630730	0.081318	-0.265077	0.724776
05268	-2.152884	-4.661774	8.067828	-0.030293	0.073226	-0.249706	-0.630848	0.081243	-0.265263	0.724615
05269	-2.169016	-4.690046	8.067494	-0.050551	0.086301	-0.232728	-0.630896	0.081208	-0.265481	0.724496
05270	-2.215607	-4.666368	8.174406	0.030172	0.095251	-0.143415	-0.630899	0.081271	-0.265732	0.724394
05271	-2.318465	-4.715433	8.267604	0.053694	0.167695	-0.018155	-0.630879	0.081417	-0.265973	0.724307
05272	-2.387495	-4.782255	8.315485	0.035151	0.223165	0.069941	-0.630877	0.081601	-0.266124	0.724233
05273	-2.385007	-4.750139	8.376188	0.093991	0.202555	0.105112	-0.630935	0.081834	-0.266136	0.724152
05274	-2.282100	-4.830404	8.364121	0.000952	0.115331	0.111324	-0.631058	0.082029	-0.266027	0.724063
05275	-2.181564	-4.847198	8.290294	-0.066317	0.044077	0.035012	-0.631239	0.082135	-0.265879	0.723947
05276	-2.057503	-4.773168	8.276124	-0.034338	-0.073786	-0.040070	-0.631454	0.082069	-0.265710	0.723829
05277	-1.981141	-4.742362	8.247234	-0.039407	-0.140971	-0.096188	-0.631634	0.081880	-0.265589	0.723738
05278	-1.995647	-4.641867	8.165893	0.009598	-0.112782	-0.210681	-0.631765	0.081614	-0.265563	0.723663
05279	-2.029491	-4.559860	8.190214	0.095062	-0.096273	-0.222460	-0.631830	0.081379	-0.265656	0.723599
05280	-2.124457	-4.613096	8.221460	0.079736	-0.015831	-0.149367	-0.631860	0.081241	-0.265861	0.723513
05281	-2.147998	-4.667856	8.263773	0.057105	-0.006459	-0.081839	-0.631871	0.081221	-0.266095	0.723420
05282	-2.145041	-4.767856	8.302860	-0.009945	-0.017787	-0.000923	-0.631877	0.081279	-0.266310	0.723329
05283	-2.130411	-4.780516	8.277445	-0.031072	-0.025961	-0.019505	-0.631907	0.081431	-0.266510	0.723212
05284	-2.050996	-4.819094	8.307224	-0.061896	-0.109114	0.006910	-0.631916	0.081595	-0.266646	0.723135
05285	-2.018115	-4.839996	8.259802	-0.104034	-0.125742	-0.030252	-0.631926	0.081753	-0.266731	0.723078
05286	-2.058663	-4.789875	8.284172	-0.038750	-0.096508	-0.025058	-0.631914	0.081867	-0.266794	0.723051
05287	-2.087222	-4.712607	8.307270	0.046708	-0.079980	-0.036833	-0.631879	0.081948	-0.266849	0.723053
05288	-2.071162	-4.723330	8.283314	0.025568	-0.088254	-0.055413	-0.631840	0.081995	-0.266954	0.723042
05289	-2.149174	-4.716791	8.374787	0.089349	-0.041356	0.035888	-0.631812	0.081989	-0.267080	0.723021
05290	-2.141727	-4.717597	8.455789	0.124796	-0.074173	0.103058	-0.631804	0.081878	-0.267209	0.722993
05291	-2.099377	-4.770051	8.470264	0.077066	-0.119458	0.131453	-0.631800	0.081682	-0.267328	0.722975
05292	-2.133939	-4.821994	8.431723	0.018826	-0.077165	0.131807	-0.631819	0.081394	-0.267437	0.722950
05293	-2.153134	-4.784682	8.370615	0.024309	-0.048236	0.066252	-0.631845	0.081135	-0.267487	0.722938
05294	-2.070951	-4.826049	8.298231	-0.063085	-0.106844	0.006927	-0.631866	0.080949	-0.267478	0.722944
05295	-1.999857	-4.664770	8.289359	0.057779	-0.183392	-0.094868	-0.631839	0.080836	-0.267467	0.722985
05296	-1.971927	-4.743825	8.265180	-0.027912	-0.199477	-0.083093	-0.631742	0.080795	-0.267531	0.723050
05297	-1.984951	-4.771716	8.265790	-0.048182	-0.186401	-0.066122	-0.631610	0.080803	-0.267645	0.723123
05298	-2.063541	-4.765045	8.356999	0.015561	-0.139556	0.025177	-0.631435	0.080722	-0.267807	0.723224
05299	-2.243665	-4.714777	8.397433	0.113206	0.015666	0.075031	-0.631243	0.080615	-0.267939	0.723355
05300	-2.325435	-4.680529	8.364231	0.143738	0.099191	0.048593	-0.631113	0.080473	-0.267995	0.723463
05301	-2.308528	-4.661916	8.257749	0.107204	0.111177	-0.054136	-0.631051	0.080327	-0.267972	0.723542
05302	-2.248981	-4.659601	8.188722	0.064216	0.073162	-0.126848	-0.631060	0.080192	-0.267909	0.723572
05303	-2.202026	-4.719206	8.059150	-0.057877	0.068849	-0.217812	-0.631068	0.080071	-0.267836	0.723606
05304	-2.046537	-4.760591	7.999801	-0.152521	-0.060977	-0.282663	-0.631065	0.079963	-0.267847	0.723616
05305	-1.974583	-4.795120	7.990605	-0.201073	-0.127560	-0.289809	-0.630975	0.079808	-0.268019	0.723649
05306	-2.023072	-4.902569	8.036026	-0.264081	-0.092651	-0.188374	-0.630815	0.079614	-0.268308	0.723703
05307	-2.063179	-4.692409	8.078341	-0.052726	-0.085405	-0.245822	-0.630624	0.079379	-0.268610	0.723783
05308	-2.133309	-4.721459	8.228742	0.005400	-0.067151	-0.088962	-0.630399	0.079182	-0.269005	0.723853
05309	-2.171295	-4.803901	8.271167	-0.037431	-0.044948	-0.004489	-0.630176	0.078969	-0.269328	0.723950
05310	-2.292098	-4.815327	8.302795	-0.008461	0.056179	0.055153	-0.629940	0.078738	-0.269547	0.724100
05311	-2.392157	-4.808290	8.228749	-0.015890	0.169063	0.012054	-0.629686	0.078544	-0.269684	0.724291
05312	-2.488207	-4.791249	8.342925	0.068817	0.224446	0.121925	-0.629455	0.078411	-0.269692	0.724503
05313	-2.593607	-4.676296	8.375317	0.202688	0.307891	0.117298	-0.629263	0.078226	-0.269647	0.724706
05314	-2.632356	-4.656985	8.380136	0.226763	0.341521	0.120863	-0.629138	0.078033	-0.269601	0.724853
05315	-2.631634	-4.592416	8.359382	0.270200	0.341155	0.071930	-0.629092	0.077764	-0.269572	0.724932
05316	-2.590964	-4.615928	8.250671	0.189269	0.332378	-0.017425	-0.629124	0.077488	-0.269635	0.724910
05317	-2.502082	-4.630821	8.135697	0.104324	0.277445	-0.127305	-0.629183	0.077207	-0.269770	0.724840
05318	-2.412677	-4.672394	8.145204	0.052555	0.185818	-0.119425	-0.629246	0.076931	-0.269959	0.724743
05319	-2.319156	-4.785891	8.070884	-0.099327	0.119374	-0.148408	-0.629281	0.076698	-0.270183	0.724654
05320	-2.316428	-4.821387	8.089019	-0.122847	0.107407	-0.116441	-0.629249	0.076498	-0.270417	0.724616
05321	-2.366664	-4.831512	8.133516	-0.101142	0.137451	-0.062325	-0.629186	0.076360	-0.270632	0.724605
05322	-2.486016	-4.807185	8.227181	-0.013256	0.217817	0.032524	-0.629091	0.076272	-0.270791	0.724637
05323	-2.471999	-4.710835	8.389907	0.142518	0.147291	0.119647	-0.629019	0.076254	-0.270941	0.724646
05324	-2.456367	-4.782943	8.428497	0.095608	0.123185	0.183588	-0.628989	0.076235	-0.271066	0.724627
05325	-2.404722	-4.774529	8.463110	0.109253	0.060774	0.196679	-0.628980	0.076164	-0.271181	0.724599
05326	-2.366234	-4.792132	8.499225	0.102701	0.011069	0.226722	-0.628993	0.076038	-0.271322	0.724549
05327	-2.328500	-4.844578	8.473209	0.037208	-0.017776	0.221525	-0.629012	0.075859	-0.271433	0.724509
05328	-2.296201	-4.798853	8.406331	0.038648	-0.035226	0.135438	-0.629027	0.075631	-0.271477	0.724503
05329	-2.246671	-4.760784	8.317758	0.019118	-0.061079	0.030767	-0.629041	0.075404	-0.271451	0.724525
05330	-2.194663	-4.855029	8.167933	-0.144136	-0.061319	-0.061870	-0.629032	0.075220	-0.271366	0.724583
05331	-2.204065	-4.816615	8.149558	-0.120860	-0.048900	-0.093841	-0.628991	0.075075	-0.271197	0.724697
05332	-2.226524	-4.646228	8.069522	-0.007260	-0.012932	-0.238670	-0.628908	0.074941	-0.271053	0.724837
05333	-2.304478	-4.671415	8.099888	-0.002547	0.054879	-0.182635	-0.628806	0.074878	-0.270983	0.724958
05334	-2.458504	-4.602025	8.074043	0.076317	0.205285	-0.202012	-0.628692	0.074824	-0.270986	0.725061
05335	-2.554521	-4.584884	8.187558	0.160976	0.260858	-0.092148	-0.628632	0.074761	-0.271039	0.725101
05336	-2.539506	-4.619361	8.289520	0.173027	0.216013	0.007045	-0.628639	0.074638	-0.271120	0.725076
05337	-2.476993	-4.582039	8.323695	0.206875	0.140809	0.003210	-0.628710	0.074455	-0.271171	0.725015
05338	-2.373652	-4.632207	8.271014	0.116370	0.057099	-0.041074	-0.628850	0.074199	-0.271268	0.724884
05339	-2.267180	-4.681992	8.259458	0.043682	-0.042964	-0.051743	-0.628981	0.073944	-0.271374	0.724756
05340	-2.148249	-4.741107	8.184285	-0.067802	-0.135187	-0.114610	-0.629129	0.073701	-0.271477	0.724614
05341	-2.087298	-4.739108	8.156281	-0.092902	-0.189667	-0.153688	-0.629216	0.073503	-0.271575	0.724522
05342	-2.004082	-4.781964	8.084845	-0.180185	-0.248455	-0.212997	-0.629233	0.073343	-0.271663	0.724490
05343	-1.990370	-4.790329	8.061963	-0.201277	-0.256695	-0.231578	-0.629171	0.073225	-0.271732	0.724530
05344	-2.067076	-4.755876	8.068592	-0.153028	-0.189610	-0.224467	-0.629034	0.073156	-0.271819	0.724623
05345	-2.122255	-4.730984	8.093594	-0.107961	-0.147381	-0.202325	-0.628828	0.073126	-0.271940	0.724760
05346	-2.259303	-4.734248	8.105907	-0.075911	-0.021240	-0.157788	-0.628596	0.073134	-0.272045	0.724921
05347	-2.416512	-4.693162	8.162037	0.018313	0.109213	-0.093023	-0.628380	0.073163	-0.272058	0.725100
05348	-2.445091	-4.554168	8.121959	0.129523	0.141553	-0.187288	-0.628206	0.073279	-0.272066	0.725237
05349	-2.448609	-4.751298	8.040107	-0.075683	0.184558	-0.160016	-0.628100	0.073422	-0.272076	0.725310
05350	-2.425533	-4.761512	8.058599	-0.079013	0.159807	-0.144986	-0.628051	0.073539	-0.272038	0.725354
05351	-2.407091	-4.770878	8.036352	-0.100113	0.151563	-0.163578	-0.628010	0.073572	-0.271984	0.725407
05352	-2.394616	-4.744081	8.035169	-0.080052	0.138953	-0.180516	-0.627977	0.073530	-0.271979	0.725442
05353	-2.421354	-4.699932	8.037132	-0.035793	0.159885	-0.193906	-0.627930	0.073420	-0.272042	0.725470
05354	-2.520369	-4.621733	8.086648	0.074592	0.231227	-0.166573	-0.627885	0.073329	-0.272197	0.725460
05355	-2.535009	-4.711742	8.148765	0.028486	0.228534	-0.067118	-0.627815	0.073292	-0.272429	0.725437
05356	-2.562848	-4.732914	8.210763	0.046926	0.233621	0.002021	-0.627745	0.073334	-0.272719	0.725385
05357	-2.586507	-4.754998	8.313398	0.083171	0.222384	0.104784	-0.627663	0.073396	-0.273032	0.725331
05358	-2.580032	-4.856712	8.392567	0.033847	0.194670	0.219279	-0.627603	0.073473	-0.273336	0.725261
05359	-2.640098	-4.897098	8.436619	0.035295	0.237595	0.290308	-0.627544	0.073534	-0.273569	0.725218
05360	-2.638114	-4.838615	8.412807	0.078742	0.237134	0.241403	-0.627532	0.073601	-0.273706	0.725170
05361	-2.584306	-4.866334	8.385675	0.033469	0.195432	0.219266	-0.627562	0.073652	-0.273734	0.725128
05362	-2.555415	-4.848586	8.361890	0.032549	0.174298	0.183747	-0.627645	0.073668	-0.273689	0.725072
05363	-2.467654	-4.855172	8.354401	0.004289	0.094857	0.159725	-0.627752	0.073683	-0.273544	0.725032
05364	-2.383975	-4.799698	8.243480	-0.015973	0.047480	0.019550	-0.627861	0.073691	-0.273412	0.724986
05365	-2.279436	-4.814844	8.213665	-0.065201	-0.040500	-0.023053	-0.627953	0.073704	-0.273332	0.724936
05366	-2.212252	-4.910877	8.186891	-0.175044	-0.090191	-0.014872	-0.628010	0.073692	-0.273358	0.724878
05367	-2.264392	-4.885505	8.253125	-0.112222	-0.064324	0.040889	-0.627997	0.073644	-0.273504	0.724839
05368	-2.314030	-4.861421	8.359336	-0.031630	-0.054947	0.130282	-0.627917	0.073585	-0.273775	0.724813
05369	-2.451020	-4.865985	8.410710	0.018133	0.054927	0.208390	-0.627777	0.073502	-0.274071	0.724830
05370	-2.646172	-4.844837	8.446622	0.095223	0.223120	0.274990	-0.627627	0.073426	-0.274338	0.724867
05371	-2.839505	-4.884140	8.546170	0.146514	0.375668	0.424111	-0.627539	0.073367	-0.274411	0.724921
05372	-2.839943	-4.822038	8.483794	0.172174	0.391606	0.341577	-0.627550	0.073366	-0.274286	0.724959
05373	-2.778986	-4.819143	8.376358	0.111538	0.369888	0.235248	-0.627688	0.073414	-0.273999	0.724944
05374	-2.613039	-4.831015	8.239627	0.001800	0.259786	0.086335	-0.627911	0.073440	-0.273618	0.724891
05375	-2.378147	-4.805747	8.179492	-0.056082	0.057918	-0.032689	-0.628174	0.073418	-0.273280	0.724793
05376	-2.227735	-4.808481	8.105680	-0.127038	-0.060060	-0.129372	-0.628391	0.073318	-0.273066	0.724696
05377	-2.183307	-4.795972	8.061259	-0.148888	-0.089665	-0.183468	-0.628559	0.073203	-0.273002	0.724586
05378	-2.156896	-4.837574	8.100750	-0.175588	-0.126564	-0.136447	-0.628653	0.073028	-0.273037	0.724509
05379	-2.232548	-4.766096	8.210876	-0.050629	-0.096373	-0.060427	-0.628680	0.072858	-0.273165	0.724454
05380	-2.331480	-4.784506	8.260748	-0.025073	-0.020038	0.014124	-0.628674	0.072770	-0.273272	0.724428
05381	-2.404461	-4.750220	8.308104	0.040909	0.030806	0.054835	-0.628653	0.072749	-0.273334	0.724425
05382	-2.475232	-4.751280	8.293728	0.047903	0.102196	0.060236	-0.628651	0.072760	-0.273306	0.724437
05383	-2.482387	-4.776900	8.337042	0.045365	0.098885	0.110792	-0.628697	0.072789	-0.273160	0.724449
05384	-2.479310	-4.810244	8.276770	-0.013737	0.119702	0.075478	-0.628775	0.072816	-0.272897	0.724477
05385	-2.363136	-4.832307	8.144562	-0.119459	0.055894	-0.052969	-0.628908	0.072821	-0.272513	0.724506
05386	-2.227843	-4.728968	8.093598	-0.084618	-0.058470	-0.178261	-0.629043	0.072773	-0.272131	0.724537
05387	-2.150868	-4.697296	8.027234	-0.107209	-0.109438	-0.267855	-0.629163	0.072715	-0.271847	0.724545
05388	-2.166643	-4.659030	7.926942	-0.119516	-0.064364	-0.367113	-0.629228	0.072604	-0.271687	0.724560
05389	-2.242061	-4.622130	7.935146	-0.071331	0.002866	-0.360049	-0.629244	0.072528	-0.271649	0.724568
05390	-2.318871	-4.551494	8.004116	0.035808	0.049395	-0.317667	-0.629223	0.072485	-0.271747	0.724553
05391	-2.374850	-4.588424	8.091284	0.054990	0.075984	-0.213020	-0.629185	0.072482	-0.271942	0.724513
05392	-2.456457	-4.582791	8.179686	0.118515	0.123183	-0.121754	-0.629152	0.072519	-0.272182	0.724448
05393	-2.466698	-4.674176	8.282381	0.090154	0.104164	0.011332	-0.629155	0.072584	-0.272411	0.724353
05394	-2.376453	-4.782299	8.313513	-0.005044	0.013106	0.068214	-0.629180	0.072653	-0.272556	0.724270
05395	-2.355922	-4.889751	8.331578	-0.093125	-0.006653	0.130477	-0.629238	0.072678	-0.272606	0.724199
05396	-2.280546	-4.897981	8.199928	-0.174683	-0.037128	0.005562	-0.629327	0.072679	-0.272449	0.724180
05397	-2.245748	-4.815945	8.156739	-0.131933	-0.058862	-0.078817	-0.629394	0.072710	-0.272186	0.724217
05398	-2.213350	-4.733770	8.072949	-0.106979	-0.064321	-0.196846	-0.629431	0.072781	-0.271875	0.724295
05399	-2.188890	-4.642708	8.093880	-0.025471	-0.093863	-0.228982	-0.629430	0.072888	-0.271600	0.724389
05400	-2.218796	-4.562535	8.077494	0.042158	-0.060844	-0.274333	-0.629385	0.072986	-0.271466	0.724468
05401	-2.316197	-4.607539	8.212564	0.083028	-0.004303	-0.115601	-0.629285	0.073051	-0.271511	0.724531
05402	-2.412209	-4.628005	8.262206	0.108523	0.072092	-0.041083	-0.629190	0.073035	-0.271705	0.724543
05403	-2.518556	-4.675485	8.353401	0.131591	0.145011	0.083992	-0.629103	0.072992	-0.271962	0.724526
05404	-2.562807	-4.784252	8.438622	0.086154	0.163652	0.218922	-0.629048	0.072943	-0.272196	0.724491
05405	-2.544386	-4.830399	8.393221	0.023891	0.159593	0.198645	-0.629037	0.072911	-0.272319	0.724458
05406	-2.450147	-4.812547	8.341673	-0.001849	0.083572	0.124131	-0.629075	0.072918	-0.272289	0.724435
05407	-2.361238	-4.855217	8.271969	-0.088975	0.024647	0.064839	-0.629137	0.072964	-0.272110	0.724444
05408	-2.354520	-4.765520	8.127429	-0.078629	0.060449	-0.101909	-0.629186	0.073018	-0.271852	0.724492
05409	-2.272130	-4.735775	8.101428	-0.083382	-0.006928	-0.157829	-0.629205	0.073078	-0.271562	0.724579
05410	-2.314675	-4.681167	8.086995	-0.035984	0.038887	-0.186279	-0.629183	0.073116	-0.271374	0.724665
05411	-2.440925	-4.655233	8.059012	-0.001730	0.168793	-0.192475	-0.629136	0.073162	-0.271281	0.724736
05412	-2.527368	-4.611945	8.129845	0.085140	0.228202	-0.133190	-0.629108	0.073218	-0.271302	0.724746
05413	-2.553278	-4.533822	8.193368	0.188344	0.228628	-0.111229	-0.629108	0.073276	-0.271395	0.724705
05414	-2.499563	-4.623641	8.228696	0.117303	0.171050	-0.050809	-0.629156	0.073349	-0.271547	0.724600
05415	-2.359326	-4.721667	8.255228	0.018256	0.033771	-0.014326	-0.629232	0.073408	-0.271693	0.724473
05416	-2.302723	-4.785086	8.206531	-0.068131	-0.003914	-0.038125	-0.629323	0.073408	-0.271830	0.724342
05417	-2.180776	-4.811691	8.193055	-0.120380	-0.116935	-0.065578	-0.629374	0.073369	-0.271956	0.724255
05418	-2.154240	-4.856140	8.230910	-0.147061	-0.153807	-0.018534	-0.629404	0.073293	-0.272063	0.724196
05419	-2.210973	-4.830397	8.255950	-0.102097	-0.111448	0.003575	-0.629368	0.073209	-0.272148	0.724205
05420	-2.234261	-4.786493	8.298688	-0.040083	-0.106883	0.023859	-0.629314	0.073137	-0.272217	0.724232
05421	-2.311102	-4.716614	8.367429	0.067013	-0.060137	0.066250	-0.629239	0.073100	-0.272266	0.724282
05422	-2.410926	-4.736002	8.376517	0.074661	0.032645	0.107075	-0.629167	0.073111	-0.272312	0.724327
05423	-2.502346	-4.693420	8.405541	0.143729	0.108527	0.132694	-0.629107	0.073142	-0.272301	0.724380
05424	-2.517873	-4.684897	8.428144	0.164551	0.117312	0.151284	-0.629079	0.073195	-0.272226	0.724427
05425	-2.445118	-4.718862	8.380889	0.098416	0.066914	0.110588	-0.629128	0.073218	-0.272072	0.724440
05426	-2.359872	-4.760716	8.270581	-0.006470	0.024164	0.017638	-0.629199	0.073199	-0.271907	0.724443
05427	-2.296220	-4.793613	8.141464	-0.108175	0.006412	-0.090392	-0.629280	0.073133	-0.271765	0.724432
05428	-2.188330	-4.782049	8.028174	-0.172583	-0.061930	-0.217130	-0.629349	0.073066	-0.271674	0.724413
05429	-2.114122	-4.753642	7.959163	-0.195073	-0.113014	-0.306685	-0.629379	0.073021	-0.271614	0.724414
05430	-2.136245	-4.673096	8.065115	-0.074084	-0.128954	-0.251028	-0.629332	0.072995	-0.271612	0.724458
05431	-2.240248	-4.657063	8.095387	-0.025261	-0.040279	-0.208523	-0.629240	0.073027	-0.271683	0.724508
05432	-2.393857	-4.677379	8.254956	0.060549	0.058437	-0.027717	-0.629112	0.073086	-0.271777	0.724579
05433	-2.448515	-4.618155	8.341736	0.164462	0.080311	0.029753	-0.629002	0.073159	-0.271883	0.724627
05434	-2.440451	-4.620008	8.422935	0.199914	0.047871	0.097098	-0.628923	0.073218	-0.271962	0.724659
05435	-2.435479	-4.692582	8.338690	0.099640	0.072856	0.060023	-0.628898	0.073224	-0.272018	0.724660
05436	-2.385927	-4.780478	8.333967	0.010827	0.031598	0.086783	-0.628927	0.073146	-0.272029	0.724638
05437	-2.250392	-4.813183	8.258888	-0.080095	-0.073740	0.007107	-0.628969	0.072994	-0.271992	0.724631
05438	-2.232467	-4.757580	8.215835	-0.057529	-0.082805	-0.060341	-0.628996	0.072786	-0.271944	0.724647
05439	-2.276595	-4.676273	8.116238	-0.025481	-0.017041	-0.173040	-0.628991	0.072603	-0.271887	0.724691
05440	-2.348292	-4.613743	8.040135	0.007260	0.070027	-0.250265	-0.628973	0.072552	-0.271825	0.724734
05441	-2.368782	-4.569227	8.083927	0.069277	0.074719	-0.229971	-0.628920	0.072628	-0.271772	0.724794
05442	-2.308597	-4.596384	8.099148	0.041899	0.016477	-0.218391	-0.628877	0.072786	-0.271785	0.724809
05443	-2.277327	-4.643068	8.137079	0.015238	-0.020293	-0.171333	-0.628821	0.072996	-0.271882	0.724800
05444	-2.292643	-4.700240	8.219992	0.010209	-0.027142	-0.070209	-0.628746	0.073181	-0.272086	0.724771
05445	-2.276152	-4.775277	8.257464	-0.036695	-0.051122	-0.006266	-0.628667	0.073270	-0.272339	0.724735
05446	-2.266657	-4.814290	8.315694	-0.042425	-0.079363	0.059384	-0.628589	0.073223	-0.272652	0.724690
05447	-2.325173	-4.826918	8.276074	-0.056476	-0.016471	0.046091	-0.628533	0.073091	-0.272949	0.724639
05448	-2.371601	-4.872726	8.298717	-0.076147	0.017910	0.098445	-0.628496	0.072892	-0.273134	0.724622
05449	-2.480416	-4.819685	8.390867	0.031593	0.086160	0.176309	-0.628456	0.072699	-0.273145	0.724672
05450	-2.411454	-4.754697	8.343525	0.050320	0.030781	0.088484	-0.628448	0.072599	-0.272974	0.724753
05451	-2.368177	-4.742572	8.258541	0.010781	0.017349	0.000739	-0.628466	0.072558	-0.272746	0.724828
05452	-2.357033	-4.713394	8.218420	0.013114	0.021060	-0.049824	-0.628460	0.072606	-0.272495	0.724923
05453	-2.348165	-4.747212	8.199488	-0.028185	0.025507	-0.051537	-0.628440	0.072745	-0.272280	0.725007
05454	-2.372273	-4.739371	8.099279	-0.060739	0.083208	-0.133999	-0.628372	0.072921	-0.272167	0.725090
05455	-2.327753	-4.696765	8.074187	-0.041294	0.049293	-0.186348	-0.628287	0.073117	-0.272184	0.725139
05456	-2.326659	-4.664618	8.135005	0.017559	0.029029	-0.150950	-0.628163	0.073275	-0.272330	0.725175
05457	-2.418426	-4.687570	8.224333	0.060698	0.089351	-0.042832	-0.628051	0.073370	-0.272600	0.725161
05458	-2.471057	-4.728041	8.350489	0.097525	0.099781	0.095476	-0.627911	0.073384	-0.272949	0.725149
05459	-2.461631	-4.864513	8.408462	0.006966	0.076472	0.208263	-0.627813	0.073301	-0.273284	0.725116
05460	-2.488575	-4.885059	8.511198	0.043101	0.065507	0.311104	-0.627742	0.073132	-0.273594	0.725078
05461	-2.581842	-4.878569	8.516735	0.070894	0.145646	0.334967	-0.627696	0.072910	-0.273803	0.725061
05462	-2.557583	-4.859876	8.492178	0.070079	0.124444	0.299499	-0.627687	0.072718	-0.273848	0.725071
05463	-2.542983	-4.804799	8.407817	0.074885	0.131731	0.198370	-0.627700	0.072606	-0.273743	0.725111
05464	-2.528981	-4.810827	8.346147	0.036030	0.139590	0.146086	-0.627719	0.072580	-0.273512	0.725185
05465	-2.459376	-4.745472	8.259268	0.037016	0.100547	0.024592	-0.627716	0.072636	-0.273215	0.725293
05466	-2.445442	-4.752181	8.157232	-0.019624	0.124677	-0.061385	-0.627714	0.072743	-0.272933	0.725390
05467	-2.362282	-4.723238	8.131218	-0.024239	0.057218	-0.117214	-0.627714	0.072872	-0.272720	0.725457
05468	-2.370984	-4.749827	8.133516	-0.044618	0.070195	-0.100345	-0.627682	0.072988	-0.272655	0.725498
05469	-2.373488	-4.751373	8.091887	-0.062521	0.086745	-0.134041	-0.627626	0.073051	-0.272721	0.725515
05470	-2.359160	-4.752266	8.255548	0.008512	0.021838	0.000732	-0.627554	0.073011	-0.272878	0.725523
05471	-2.411650	-4.763277	8.258520	0.012214	0.068440	0.021090	-0.627483	0.072904	-0.273048	0.725531
05472	-2.510474	-4.782590	8.307765	0.037507	0.145012	0.095499	-0.627436	0.072755	-0.273151	0.725548
05473	-2.533863	-4.773267	8.288492	0.040530	0.170200	0.080392	-0.627417	0.072613	-0.273150	0.725578
05474	-2.601465	-4.771917	8.316329	0.065142	0.225357	0.119337	-0.627457	0.072515	-0.273013	0.725606
05475	-2.521222	-4.715204	8.165296	0.027432	0.193917	-0.054439	-0.627511	0.072469	-0.272762	0.725657
05476	-2.481680	-4.667448	8.101850	0.029103	0.176175	-0.140465	-0.627589	0.072478	-0.272504	0.725686
05477	-2.433394	-4.655809	8.058081	0.007391	0.146389	-0.194520	-0.627631	0.072517	-0.272329	0.725712
05478	-2.394486	-4.671777	8.055808	-0.016801	0.113033	-0.198009	-0.627643	0.072512	-0.272269	0.725725
05479	-2.362362	-4.653069	8.073543	0.000209	0.075618	-0.199770	-0.627656	0.072446	-0.272307	0.725705
05480	-2.397578	-4.671476	8.055063	-0.017040	0.113494	-0.198015	-0.627642	0.072341	-0.272443	0.725677
05481	-2.471170	-4.734697	8.102061	-0.036086	0.169399	-0.110243	-0.627622	0.072211	-0.272615	0.725642
05482	-2.475474	-4.699879	8.162848	0.022766	0.149190	-0.074816	-0.627626	0.072159	-0.272736	0.725599
05483	-2.526345	-4.771472	8.229425	0.000576	0.180200	0.028061	-0.627666	0.072163	-0.272751	0.725558
05484	-2.407286	-4.725609	8.301328	0.048695	0.042433	0.037911	-0.627688	0.072230	-0.272723	0.725543
05485	-2.413139	-4.787735	8.281947	-0.012873	0.059630	0.053040	-0.627724	0.072302	-0.272627	0.725540
05486	-2.457290	-4.734908	8.265949	0.034460	0.105496	0.024549	-0.627750	0.072368	-0.272497	0.725561
05487	-2.392164	-4.733293	8.199108	-0.008163	0.067047	-0.048092	-0.627778	0.072423	-0.272325	0.725595
05488	-2.381736	-4.704822	8.158394	-0.005813	0.070707	-0.098658	-0.627811	0.072394	-0.272123	0.725646
05489	-2.305695	-4.674545	8.091055	-0.028163	0.019466	-0.188156	-0.627865	0.072308	-0.271920	0.725683
05490	-2.343366	-4.654039	8.096295	-0.004229	0.053206	-0.184677	-0.627883	0.072148	-0.271802	0.725728
05491	-2.398185	-4.661468	8.060678	-0.018343	0.116063	-0.198048	-0.627899	0.072026	-0.271781	0.725735
05492	-2.440627	-4.705023	8.085791	-0.038081	0.150466	-0.145743	-0.627882	0.071960	-0.271793	0.725751
05493	-2.450969	-4.634258	8.127457	0.044183	0.142488	-0.142274	-0.627878	0.071974	-0.271817	0.725744
05494	-2.467638	-4.626603	8.149186	0.064978	0.151333	-0.123683	-0.627871	0.072066	-0.271849	0.725729
05495	-2.499260	-4.646866	8.130737	0.047725	0.189291	-0.121947	-0.627868	0.072223	-0.271887	0.725702
05496	-2.526268	-4.667291	8.153519	0.048247	0.210917	-0.086502	-0.627870	0.072419	-0.271901	0.725676
05497	-2.470591	-4.660028	8.189340	0.062141	0.148614	-0.073128	-0.627929	0.072627	-0.271916	0.725598
05498	-2.452853	-4.696675	8.291325	0.074192	0.104208	0.026263	-0.628000	0.072754	-0.271944	0.725513
05499	-2.423374	-4.741258	8.329963	0.047547	0.067472	0.073350	-0.628072	0.072781	-0.271958	0.725443
05500	-2.361690	-4.740547	8.261561	0.004936	0.028898	0.000716	-0.628168	0.072733	-0.271956	0.725365
05501	-2.308899	-4.765366	8.236036	-0.040141	-0.013048	-0.021352	-0.628269	0.072652	-0.271937	0.725293
05502	-2.265663	-4.719076	8.252743	-0.002847	-0.063316	-0.039937	-0.628358	0.072573	-0.271905	0.725236
05503	-2.212349	-4.743997	8.227348	-0.047919	-0.105266	-0.062002	-0.628427	0.072553	-0.271887	0.725185
05504	-2.192306	-4.752199	8.246266	-0.051167	-0.129972	-0.046880	-0.628466	0.072550	-0.271892	0.725150
05505	-2.171932	-4.761000	8.264931	-0.054402	-0.154594	-0.031755	-0.628420	0.072559	-0.271915	0.725179
05506	-2.242054	-4.763044	8.250104	-0.047631	-0.083160	-0.026553	-0.628334	0.072605	-0.271959	0.725233
05507	-2.342030	-4.747973	8.320807	0.018768	-0.010534	0.049550	-0.628212	0.072638	-0.272038	0.725306
05508	-2.508832	-4.671967	8.355829	0.135715	0.132595	0.082028	-0.628110	0.072660	-0.272056	0.725386
05509	-2.594794	-4.665209	8.363703	0.163398	0.212791	0.105814	-0.628042	0.072741	-0.272014	0.725452
05510	-2.578535	-4.710211	8.238356	0.065583	0.240877	0.018036	-0.628047	0.072835	-0.271904	0.725479
05511	-2.426974	-4.655453	8.100163	0.021096	0.138006	-0.160921	-0.628107	0.072901	-0.271794	0.725462
05512	-2.347108	-4.688764	8.135349	-0.009313	0.054836	-0.134142	-0.628207	0.072913	-0.271732	0.725397
05513	-2.252788	-4.669347	8.084824	-0.034727	-0.021366	-0.208491	-0.628282	0.072833	-0.271771	0.725326
05514	-2.281575	-4.686928	8.148709	-0.016427	-0.015941	-0.139332	-0.628289	0.072660	-0.271964	0.725265
05515	-2.387481	-4.670983	8.218233	0.049949	0.056711	-0.063237	-0.628265	0.072460	-0.272230	0.725206
05516	-2.464612	-4.637936	8.263559	0.115678	0.107830	-0.022582	-0.628232	0.072329	-0.272509	0.725143
05517	-2.535159	-4.702329	8.350726	0.114330	0.147587	0.098857	-0.628228	0.072299	-0.272703	0.725077
05518	-2.516327	-4.712788	8.368033	0.111078	0.122890	0.113984	-0.628237	0.072356	-0.272786	0.725032
05519	-2.440644	-4.748795	8.360653	0.062901	0.056027	0.107052	-0.628296	0.072501	-0.272769	0.724972
05520	-2.387868	-4.776049	8.293731	0.000044	0.030180	0.051268	-0.628373	0.072659	-0.272694	0.724917
05521	-2.239177	-4.845395	8.239544	-0.113972	-0.087630	0.003686	-0.628447	0.072762	-0.272593	0.724881
05522	-2.216131	-4.827267	8.134282	-0.150301	-0.076482	-0.099200	-0.628478	0.072779	-0.272484	0.724894
05523	-2.199597	-4.737569	8.112550	-0.086440	-0.089651	-0.164851	-0.628456	0.072740	-0.272390	0.724952
05524	-2.190693	-4.709544	8.071130	-0.084066	-0.086032	-0.215416	-0.628405	0.072674	-0.272282	0.725043
05525	-2.381541	-4.622367	8.047656	0.018157	0.098333	-0.231832	-0.628328	0.072630	-0.272196	0.725147
05526	-2.427659	-4.534048	8.093588	0.124440	0.123920	-0.224860	-0.628248	0.072668	-0.272157	0.725227
05527	-2.529494	-4.554431	8.061286	0.114008	0.233111	-0.217992	-0.628200	0.072774	-0.272190	0.725246
05528	-2.544354	-4.645221	8.082926	0.049903	0.246744	-0.152349	-0.628191	0.072893	-0.272293	0.725203
05529	-2.494723	-4.700097	8.139321	0.020152	0.185125	-0.090114	-0.628202	0.072983	-0.272439	0.725130
05530	-2.421346	-4.737090	8.130539	-0.028017	0.118155	-0.097037	-0.628251	0.073004	-0.272627	0.725014
05531	-2.354512	-4.738409	8.142530	-0.034977	0.047180	-0.102199	-0.628294	0.072947	-0.272867	0.724893
05532	-2.362868	-4.802016	8.161484	-0.078795	0.048032	-0.053394	-0.628342	0.072820	-0.273108	0.724773
05533	-2.318145	-4.793810	8.154785	-0.082636	0.001946	-0.073689	-0.628338	0.072696	-0.273310	0.724713
05534	-2.434319	-4.743421	8.163024	-0.010713	0.102889	-0.063317	-0.628292	0.072634	-0.273453	0.724705
05535	-2.527363	-4.701899	8.190740	0.058104	0.179030	-0.037811	-0.628240	0.072709	-0.273504	0.724723
05536	-2.510033	-4.677285	8.230030	0.096054	0.150255	-0.020913	-0.628198	0.072893	-0.273514	0.724737
05537	-2.502180	-4.715259	8.208324	0.054744	0.154613	-0.022679	-0.628191	0.073136	-0.273492	0.724727
05538	-2.474859	-4.725911	8.268141	0.069292	0.113726	0.026193	-0.628216	0.073307	-0.273469	0.724697
05539	-2.448989	-4.735524	8.328103	0.083854	0.072930	0.075067	-0.628266	0.073376	-0.273458	0.724651
05540	-2.353058	-4.752575	8.214905	-0.000483	0.016846	-0.034741	-0.628333	0.073344	-0.273524	0.724571
05541	-2.351238	-4.787840	8.192934	-0.041790	0.021196	-0.036507	-0.628395	0.073201	-0.273635	0.724490
05542	-2.372728	-4.778623	8.214249	-0.021018	0.030089	-0.017912	-0.628443	0.072999	-0.273774	0.724416
05543	-2.415142	-4.760860	8.216487	0.002876	0.063956	-0.014460	-0.628481	0.072826	-0.273910	0.724349
05544	-2.473618	-4.735104	8.240836	0.047653	0.106443	0.007586	-0.628483	0.072727	-0.274049	0.724304
05545	-2.505085	-4.754049	8.262992	0.048138	0.128202	0.043007	-0.628500	0.072733	-0.274143	0.724253
05546	-2.526184	-4.747154	8.242902	0.051114	0.153280	0.027861	-0.628513	0.072839	-0.274203	0.724209
05547	-2.447520	-4.747921	8.339247	0.079761	0.049951	0.090206	-0.628559	0.072982	-0.274194	0.724158
05548	-2.395218	-4.775307	8.271985	0.016941	0.024020	0.034419	-0.628623	0.073114	-0.274181	0.724094
05549	-2.319378	-4.810619	8.265041	-0.031179	-0.042890	0.027519	-0.628689	0.073163	-0.274176	0.724034
05550	-2.269200	-4.836490	8.198019	-0.093994	-0.068831	-0.028269	-0.628750	0.073118	-0.274178	0.723985
05551	-2.284502	-4.826698	8.261641	-0.055421	-0.076018	0.024071	-0.628790	0.072965	-0.274197	0.723958
05552	-2.291676	-4.824748	8.220589	-0.073336	-0.059655	-0.009672	-0.628801	0.072718	-0.274225	0.723962
05553	-2.375955	-4.752436	8.248552	0.015743	0.003755	-0.001003	-0.628813	0.072443	-0.274273	0.723962
05554	-2.438360	-4.724401	8.232851	0.042717	0.062430	-0.012704	-0.628803	0.072225	-0.274322	0.723974
05555	-2.540040	-4.679931	8.179219	0.075910	0.170956	-0.054706	-0.628810	0.072147	-0.274296	0.723985
05556	-2.553191	-4.670575	8.243133	0.114462	0.163703	-0.002367	-0.628847	0.072216	-0.274231	0.723971
05557	-2.451975	-4.652468	8.234534	0.106957	0.071236	-0.042904	-0.628898	0.072378	-0.274183	0.723928
05558	-2.395370	-4.741875	8.271199	0.036023	0.013611	0.017594	-0.628953	0.072564	-0.274184	0.723861
05559	-2.319052	-4.778643	8.263691	-0.012079	-0.053313	0.010705	-0.628990	0.072693	-0.274252	0.723791
05560	-2.298924	-4.789511	8.281233	-0.015308	-0.078001	0.025858	-0.628985	0.072727	-0.274387	0.723741
05561	-2.309615	-4.756181	8.259401	0.007984	-0.065615	-0.006112	-0.628990	0.072679	-0.274555	0.723678
05562	-2.369774	-4.828654	8.242169	-0.049957	-0.002220	0.029192	-0.628961	0.072583	-0.274693	0.723660
05563	-2.484819	-4.776960	8.251215	0.021897	0.098869	0.039519	-0.628946	0.072488	-0.274724	0.723671
05564	-2.535229	-4.785183	8.256028	0.025448	0.145444	0.059777	-0.628954	0.072439	-0.274622	0.723708
05565	-2.535075	-4.685534	8.257767	0.110237	0.141011	0.012765	-0.629013	0.072412	-0.274388	0.723748
05566	-2.418942	-4.707620	8.125621	0.005081	0.076079	-0.115633	-0.629110	0.072414	-0.274123	0.723763
05567	-2.350375	-4.703823	8.101323	-0.019601	0.021246	-0.154488	-0.629206	0.072390	-0.273924	0.723758
05568	-2.254478	-4.683025	8.052544	-0.044871	-0.055172	-0.228753	-0.629256	0.072312	-0.273874	0.723741
05569	-2.251883	-4.717879	8.031085	-0.086178	-0.050859	-0.230534	-0.629274	0.072214	-0.274012	0.723683
05570	-2.319153	-4.719194	8.097355	-0.043952	-0.011707	-0.157929	-0.629234	0.072042	-0.274239	0.723649
05571	-2.461167	-4.722161	8.106911	-0.012736	0.114939	-0.113987	-0.629154	0.071909	-0.274519	0.723625
05572	-2.570724	-4.672270	8.196608	0.094659	0.183672	-0.036164	-0.629103	0.071851	-0.274726	0.723597
05573	-2.659558	-4.666582	8.202342	0.122190	0.263945	-0.012480	-0.629100	0.071951	-0.274817	0.723555
05574	-2.615580	-4.659748	8.114578	0.082808	0.250047	-0.100247	-0.629155	0.072177	-0.274798	0.723492
05575	-2.509453	-4.704958	8.209505	0.067214	0.125936	-0.024450	-0.629237	0.072437	-0.274718	0.723425
05576	-2.381314	-4.793386	8.261386	-0.010471	-0.002955	0.030969	-0.629327	0.072629	-0.274611	0.723368
05577	-2.304045	-4.827789	8.255574	-0.058541	-0.069906	0.024098	-0.629425	0.072669	-0.274494	0.723323
05578	-2.254397	-4.816755	8.252177	-0.062331	-0.116098	0.003854	-0.629505	0.072563	-0.274421	0.723291
05579	-2.251956	-4.849399	8.231932	-0.103640	-0.111790	0.002069	-0.629564	0.072341	-0.274390	0.723274
05580	-2.263748	-4.811224	8.212601	-0.080359	-0.099492	-0.029902	-0.629585	0.072106	-0.274380	0.723284
05581	-2.312779	-4.756334	8.196198	-0.033091	-0.053497	-0.058439	-0.629581	0.071926	-0.274391	0.723301
05582	-2.384741	-4.693958	8.119178	-0.000533	0.033431	-0.135903	-0.629542	0.071842	-0.274391	0.723343
05583	-2.488322	-4.615408	8.086600	0.073795	0.137921	-0.176175	-0.629473	0.071908	-0.274344	0.723414
05584	-2.567517	-4.582317	8.010678	0.086029	0.237615	-0.236839	-0.629416	0.072137	-0.274267	0.723470
05585	-2.559031	-4.585101	8.051874	0.103700	0.221759	-0.203081	-0.629359	0.072477	-0.274212	0.723507
05586	-2.511458	-4.703545	8.089321	0.012466	0.176896	-0.125767	-0.629368	0.072869	-0.274198	0.723464
05587	-2.466313	-4.786956	8.188479	-0.019767	0.111961	-0.012896	-0.629405	0.073163	-0.274264	0.723379
05588	-2.432468	-4.834369	8.267066	-0.028605	0.059052	0.068006	-0.629445	0.073278	-0.274390	0.723284
05589	-2.419050	-4.871552	8.367854	-0.016551	0.014977	0.167508	-0.629489	0.073183	-0.274566	0.723188
05590	-2.454535	-4.854029	8.452309	0.042863	0.016553	0.238470	-0.629554	0.072919	-0.274713	0.723102
05591	-2.477745	-4.781339	8.411523	0.089561	0.041044	0.174526	-0.629632	0.072600	-0.274807	0.723031
05592	-2.491898	-4.742648	8.391673	0.112836	0.053350	0.142555	-0.629720	0.072291	-0.274799	0.722988
05593	-2.420344	-4.711806	8.323700	0.090733	0.001836	0.053159	-0.629821	0.072113	-0.274722	0.722948
05594	-2.374795	-4.797203	8.279157	-0.015754	-0.023560	0.046138	-0.629904	0.072059	-0.274642	0.722911
05595	-2.323682	-4.822179	8.213108	-0.078496	-0.049546	-0.009655	-0.629911	0.072084	-0.274573	0.722929
05596	-2.322564	-4.822528	8.213220	-0.078624	-0.049349	-0.009655	-0.629892	0.072172	-0.274567	0.722938
05597	-2.321197	-4.824321	8.212553	-0.078738	-0.049074	-0.009655	-0.629817	0.072300	-0.274614	0.722973
05598	-2.379048	-4.765752	8.258026	0.007165	-0.010500	0.014168	-0.629724	0.072433	-0.274700	0.723009
05599	-2.422932	-4.813179	8.239826	-0.030516	0.040186	0.032590	-0.629642	0.072544	-0.274776	0.723040
05600	-2.386213	-4.796668	8.298295	0.004386	-0.013367	0.064739	-0.629583	0.072532	-0.274788	0.723088
05601	-2.496152	-4.743757	8.349582	0.093926	0.071695	0.108782	-0.629567	0.072370	-0.274747	0.723133
05602	-2.530589	-4.696687	8.270414	0.102496	0.124977	0.027861	-0.629560	0.072128	-0.274631	0.723208
05603	-2.474479	-4.656488	8.225525	0.101288	0.082195	-0.042930	-0.629623	0.071887	-0.274504	0.723225
05604	-2.497371	-4.643789	8.208080	0.104240	0.107263	-0.058107	-0.629673	0.071673	-0.274415	0.723236
05605	-2.489594	-4.711466	8.166962	0.021725	0.115548	-0.061717	-0.629733	0.071563	-0.274343	0.723223
05606	-2.440610	-4.700950	8.163161	0.017971	0.069343	-0.081933	-0.629778	0.071567	-0.274326	0.723189
05607	-2.373805	-4.701000	8.136314	-0.006635	0.014449	-0.120747	-0.629790	0.071651	-0.274357	0.723158
05608	-2.381894	-4.729621	8.177652	-0.009304	0.011311	-0.070177	-0.629779	0.071784	-0.274443	0.723123
05609	-2.406964	-4.750311	8.240782	0.008909	0.017024	-0.001008	-0.629743	0.071908	-0.274545	0.723103
05610	-2.440288	-4.735379	8.284040	0.050515	0.034764	0.036189	-0.629712	0.072006	-0.274590	0.723103
05611	-2.484227	-4.781418	8.266637	0.012814	0.085446	0.054590	-0.629712	0.072089	-0.274575	0.723101
05612	-2.420811	-4.745648	8.261623	0.029400	0.026472	0.017590	-0.629741	0.072148	-0.274464	0.723112
05613	-2.315142	-4.761328	8.232867	-0.019140	-0.062068	-0.024633	-0.629780	0.072153	-0.274346	0.723122
05614	-2.300996	-4.768332	8.170564	-0.057923	-0.054550	-0.077012	-0.629815	0.072099	-0.274224	0.723143
05615	-2.341754	-4.748878	8.133886	-0.051882	-0.004544	-0.107378	-0.629817	0.072019	-0.274099	0.723197
05616	-2.368956	-4.738359	8.033654	-0.084512	0.052700	-0.190127	-0.629802	0.071969	-0.273981	0.723260
05617	-2.393397	-4.692957	8.036873	-0.040351	0.073845	-0.203502	-0.629745	0.071943	-0.273884	0.723349
05618	-2.409708	-4.683338	8.059844	-0.019614	0.082816	-0.184905	-0.629711	0.071915	-0.273833	0.723400
05619	-2.413202	-4.682925	8.018894	-0.037518	0.099174	-0.218692	-0.629681	0.071887	-0.273812	0.723437
05620	-2.426997	-4.674161	8.082263	0.001007	0.092061	-0.166310	-0.629657	0.071872	-0.273847	0.723446
05621	-2.378127	-4.665709	8.077194	-0.002709	0.045923	-0.186511	-0.629641	0.071885	-0.273930	0.723427
05622	-2.358571	-4.675809	8.095079	-0.005911	0.021253	-0.171325	-0.629630	0.071914	-0.274031	0.723396
05623	-2.292726	-4.677189	8.067134	-0.030485	-0.033669	-0.210121	-0.629618	0.071982	-0.274147	0.723355
05624	-2.272995	-4.749979	8.147145	-0.059641	-0.073750	-0.112390	-0.629588	0.072058	-0.274264	0.723330
05625	-2.294184	-4.805419	8.189179	-0.082641	-0.064024	-0.045034	-0.629505	0.072097	-0.274362	0.723361
05626	-2.422091	-4.782179	8.157558	-0.049096	0.065960	-0.051809	-0.629378	0.072165	-0.274401	0.723449
05627	-2.469936	-4.793040	8.161510	-0.045620	0.112650	-0.031620	-0.629282	0.072275	-0.274354	0.723540
05628	-2.567508	-4.715450	8.170439	0.046385	0.201031	-0.038176	-0.629186	0.072376	-0.274251	0.723653
05629	-2.586410	-4.671884	8.214544	0.108325	0.206120	-0.017763	-0.629132	0.072473	-0.274154	0.723726
05630	-2.587590	-4.672009	8.173983	0.090405	0.222395	-0.051557	-0.629102	0.072532	-0.274059	0.723783
05631	-2.565670	-4.680505	8.193492	0.087215	0.197812	-0.036370	-0.629089	0.072557	-0.274022	0.723806
05632	-2.490569	-4.715173	8.186938	0.039229	0.130702	-0.043187	-0.629105	0.072557	-0.274051	0.723780
05633	-2.516972	-4.671864	8.188438	0.083381	0.151867	-0.056563	-0.629127	0.072547	-0.274117	0.723738
05634	-2.434811	-4.742342	8.201267	0.011986	0.072662	-0.031405	-0.629165	0.072548	-0.274190	0.723676
05635	-2.307789	-4.768320	8.230884	-0.021771	-0.056855	-0.024607	-0.629195	0.072559	-0.274265	0.723621
05636	-2.287612	-4.875066	8.248941	-0.109923	-0.076878	0.037514	-0.629199	0.072533	-0.274355	0.723586
05637	-2.281665	-4.813873	8.268243	-0.048490	-0.093336	0.022562	-0.629161	0.072509	-0.274404	0.723603
05638	-2.320367	-4.797536	8.270600	-0.024691	-0.059479	0.025968	-0.629064	0.072472	-0.274507	0.723652
05639	-2.347182	-4.816595	8.334215	-0.006507	-0.053700	0.095141	-0.628946	0.072430	-0.274583	0.723730
05640	-2.576568	-4.713832	8.311587	0.119098	0.164511	0.081763	-0.628843	0.072391	-0.274587	0.723822
05641	-2.758150	-4.663039	8.306748	0.197374	0.337051	0.096946	-0.628758	0.072456	-0.274471	0.723933
05642	-2.719729	-4.618048	8.201448	0.181500	0.335044	-0.022803	-0.628757	0.072645	-0.274215	0.724012
05643	-2.579099	-4.651266	8.088134	0.073541	0.244891	-0.135986	-0.628831	0.072904	-0.273959	0.724019
05644	-2.368755	-4.745896	8.051414	-0.067029	0.067983	-0.171595	-0.628941	0.073153	-0.273765	0.723971
05645	-2.265799	-4.727839	8.043267	-0.074275	-0.024596	-0.211941	-0.629009	0.073330	-0.273723	0.723911
05646	-2.173244	-4.772609	8.013553	-0.143080	-0.100535	-0.237342	-0.629025	0.073372	-0.273855	0.723843
05647	-2.190750	-4.792965	8.199797	-0.071531	-0.142900	-0.066764	-0.628978	0.073305	-0.274125	0.723787
05648	-2.264173	-4.761211	8.285826	0.011748	-0.107475	0.007640	-0.628906	0.073131	-0.274472	0.723737
05649	-2.346187	-4.790788	8.351618	0.033484	-0.055247	0.096984	-0.628840	0.072913	-0.274782	0.723698
05650	-2.461528	-4.802091	8.462623	0.096902	0.014532	0.223526	-0.628783	0.072721	-0.274974	0.723694
05651	-2.522928	-4.776347	8.445756	0.123755	0.073339	0.211721	-0.628728	0.072638	-0.275008	0.723738
05652	-2.456151	-4.774566	8.419863	0.099218	0.018304	0.172956	-0.628712	0.072634	-0.274872	0.723803
05653	-2.434216	-4.755001	8.274581	0.045239	0.045142	0.036173	-0.628707	0.072760	-0.274616	0.723892
05654	-2.368609	-4.752670	8.168142	-0.014871	0.022182	-0.070202	-0.628719	0.072972	-0.274281	0.723987
05655	-2.301633	-4.750142	8.062187	-0.074963	-0.000707	-0.176578	-0.628735	0.073203	-0.273892	0.724098
05656	-2.193845	-4.702784	7.931735	-0.115201	-0.058021	-0.335086	-0.628746	0.073390	-0.273560	0.724194
05657	-2.139677	-4.691840	7.929477	-0.118859	-0.104188	-0.355245	-0.628735	0.073445	-0.273399	0.724259
05658	-2.217750	-4.657079	7.895213	-0.088960	-0.020617	-0.382266	-0.628662	0.073373	-0.273445	0.724312
05659	-2.292273	-4.685339	8.004143	-0.049456	0.015590	-0.259127	-0.628554	0.073212	-0.273691	0.724330
05660	-2.449276	-4.645721	8.138998	0.079040	0.115131	-0.127366	-0.628395	0.073065	-0.274058	0.724344
05661	-2.576450	-4.686559	8.249469	0.122076	0.197792	0.015926	-0.628273	0.072967	-0.274450	0.724311
05662	-2.578020	-4.752690	8.349179	0.113752	0.166604	0.132279	-0.628189	0.072955	-0.274786	0.724257
05663	-2.589597	-4.844995	8.450854	0.085077	0.148260	0.265393	-0.628161	0.073006	-0.274962	0.724210
05664	-2.497589	-4.889782	8.421062	0.016302	0.072297	0.240009	-0.628181	0.073094	-0.274946	0.724189
05665	-2.448985	-4.818187	8.313967	0.020842	0.057528	0.103499	-0.628210	0.073196	-0.274756	0.724226
05666	-2.369683	-4.788774	8.247394	-0.001096	0.005736	0.014175	-0.628249	0.073292	-0.274471	0.724291
05667	-2.252517	-4.713723	8.115728	-0.020924	-0.064309	-0.161082	-0.628285	0.073350	-0.274181	0.724364
05668	-2.249650	-4.711188	8.117995	-0.021046	-0.064115	-0.161081	-0.628298	0.073332	-0.274005	0.724421
05669	-2.264600	-4.674416	8.016467	-0.033319	-0.019709	-0.260682	-0.628269	0.073269	-0.273966	0.724467
05670	-2.274646	-4.700728	8.058566	-0.036016	-0.022773	-0.210108	-0.628214	0.073160	-0.274073	0.724485
05671	-2.286602	-4.728349	8.099364	-0.038701	-0.025761	-0.159535	-0.628130	0.073037	-0.274297	0.724486
05672	-2.349299	-4.766782	8.143338	-0.037872	0.017622	-0.088818	-0.628034	0.072931	-0.274594	0.724467
05673	-2.347030	-4.831693	8.285210	-0.028398	-0.029484	0.061361	-0.627925	0.072859	-0.274896	0.724454
05674	-2.398569	-4.809510	8.390069	0.051784	-0.018801	0.150984	-0.627799	0.072840	-0.275163	0.724465
05675	-2.454009	-4.884571	8.412586	0.011412	0.028596	0.219852	-0.627664	0.072878	-0.275357	0.724504
05676	-2.517326	-4.888426	8.478611	0.053431	0.068066	0.292411	-0.627543	0.072961	-0.275394	0.724586
05677	-2.563115	-4.801679	8.524363	0.159607	0.094188	0.299488	-0.627466	0.073011	-0.275272	0.724694
05678	-2.589005	-4.756173	8.487144	0.185940	0.131335	0.252298	-0.627436	0.073025	-0.275006	0.724819
05679	-2.549098	-4.742730	8.321219	0.111147	0.149218	0.096877	-0.627465	0.073019	-0.274631	0.724937
05680	-2.471643	-4.745115	8.152921	0.012458	0.133330	-0.061927	-0.627538	0.072966	-0.274233	0.725030
05681	-2.362598	-4.729114	8.002558	-0.068890	0.079895	-0.222265	-0.627611	0.072884	-0.273882	0.725108
05682	-2.282399	-4.635624	7.915317	-0.047000	0.027379	-0.360299	-0.627630	0.072806	-0.273735	0.725155
05683	-2.303608	-4.625779	7.896857	-0.044064	0.052491	-0.375522	-0.627608	0.072724	-0.273782	0.725164
05684	-2.344082	-4.671660	7.960986	-0.046303	0.071043	-0.289598	-0.627517	0.072638	-0.274040	0.725154
05685	-2.478162	-4.739024	8.114283	-0.005938	0.150565	-0.095768	-0.627392	0.072611	-0.274389	0.725133
05686	-2.547181	-4.771469	8.302778	0.069060	0.154813	0.095008	-0.627275	0.072633	-0.274756	0.725093
05687	-2.595016	-4.883255	8.344231	0.005243	0.190131	0.195824	-0.627203	0.072694	-0.275046	0.725039
05688	-2.632968	-4.896507	8.510791	0.079770	0.172793	0.351251	-0.627184	0.072745	-0.275185	0.724998
05689	-2.617743	-4.871126	8.550282	0.117810	0.144327	0.368327	-0.627213	0.072793	-0.275144	0.724983
05690	-2.528682	-4.814736	8.482271	0.116298	0.079714	0.262279	-0.627320	0.072787	-0.274875	0.724993
05691	-2.376596	-4.789156	8.245182	-0.004097	0.011768	0.014168	-0.627467	0.072720	-0.274426	0.725043
05692	-2.188940	-4.743205	8.068643	-0.089376	-0.109867	-0.201632	-0.627657	0.072533	-0.273947	0.725079
05693	-2.124945	-4.672859	7.943120	-0.105598	-0.133592	-0.356728	-0.627777	0.072277	-0.273639	0.725117
05694	-2.107767	-4.711671	7.861188	-0.185540	-0.122356	-0.411017	-0.627795	0.072042	-0.273552	0.725157
05695	-2.194967	-4.702390	7.909824	-0.140491	-0.057933	-0.353693	-0.627698	0.071846	-0.273721	0.725196
05696	-2.384583	-4.680471	8.026530	-0.029479	0.079442	-0.220449	-0.627527	0.071720	-0.274076	0.725223
05697	-2.562500	-4.696519	8.202863	0.075907	0.188831	-0.021404	-0.627308	0.071701	-0.274503	0.725253
05698	-2.704675	-4.731562	8.334256	0.139614	0.280449	0.140434	-0.627135	0.071826	-0.274873	0.725250
05699	-2.757035	-4.773942	8.459446	0.175969	0.291997	0.278782	-0.627023	0.072023	-0.275080	0.725249
05700	-2.664520	-4.785212	8.492046	0.166267	0.196069	0.289128	-0.627035	0.072237	-0.275058	0.725226
05701	-2.508283	-4.827473	8.355682	0.037697	0.096745	0.157399	-0.627117	0.072398	-0.274851	0.725217
05702	-2.312308	-4.786633	8.259294	-0.011949	-0.056925	0.009286	-0.627225	0.072457	-0.274530	0.725239
05703	-2.110397	-4.814006	8.080286	-0.161772	-0.186755	-0.176381	-0.627348	0.072375	-0.274166	0.725279
05704	-2.078128	-4.763548	7.935997	-0.195322	-0.173006	-0.329968	-0.627430	0.072170	-0.273855	0.725346
05705	-2.049333	-4.678335	7.853308	-0.169860	-0.179061	-0.447854	-0.627408	0.071934	-0.273680	0.725454
05706	-2.223310	-4.695850	7.806866	-0.174291	0.001327	-0.436607	-0.627305	0.071769	-0.273637	0.725576
05707	-2.354085	-4.635777	7.838174	-0.081996	0.111567	-0.407904	-0.627144	0.071745	-0.273696	0.725696
05708	-2.500923	-4.631541	7.952978	0.005094	0.215310	-0.278053	-0.626980	0.071867	-0.273807	0.725783
05709	-2.518212	-4.591926	8.035521	0.084798	0.204588	-0.223750	-0.626822	0.072108	-0.273963	0.725837
05710	-2.608675	-4.678795	8.186125	0.101182	0.250479	-0.033323	-0.626678	0.072381	-0.274167	0.725857
05711	-2.652987	-4.694631	8.228605	0.122324	0.281253	0.020612	-0.626588	0.072658	-0.274350	0.725838
05712	-2.618647	-4.743623	8.306631	0.113528	0.228571	0.101659	-0.626540	0.072900	-0.274491	0.725802
05713	-2.541874	-4.781162	8.298827	0.065700	0.161437	0.094925	-0.626538	0.073036	-0.274543	0.725770
05714	-2.433158	-4.798188	8.310203	0.035216	0.056632	0.086701	-0.626597	0.073106	-0.274522	0.725720
05715	-2.346527	-4.901954	8.262230	-0.095019	-0.002742	0.076233	-0.626666	0.073111	-0.274396	0.725708
05716	-2.282156	-4.898258	8.196383	-0.137218	-0.041918	0.003690	-0.626729	0.073046	-0.274196	0.725735
05717	-2.197741	-4.840308	8.087598	-0.156414	-0.090576	-0.136158	-0.626747	0.072929	-0.274027	0.725795
05718	-2.232267	-4.758714	8.071096	-0.088877	-0.057346	-0.181500	-0.626696	0.072804	-0.273945	0.725883
05719	-2.434480	-4.734706	7.984551	-0.066915	0.160038	-0.217527	-0.626599	0.072739	-0.273906	0.725987
05720	-2.541850	-4.586592	8.076523	0.125098	0.224907	-0.186587	-0.626475	0.072785	-0.273876	0.726101
05721	-2.582635	-4.536171	8.100420	0.190037	0.255021	-0.181358	-0.626387	0.072967	-0.273888	0.726155
05722	-2.620958	-4.584594	8.123597	0.169946	0.289612	-0.129300	-0.626350	0.073221	-0.273964	0.726132
05723	-2.563616	-4.676523	8.158834	0.099145	0.232016	-0.068720	-0.626326	0.073503	-0.274108	0.726070
05724	-2.449346	-4.794082	8.209344	0.001461	0.115792	0.003750	-0.626346	0.073698	-0.274305	0.725958
05725	-2.366107	-4.867426	8.220388	-0.069761	0.036557	0.029004	-0.626359	0.073807	-0.274522	0.725854
05726	-2.318355	-4.922513	8.276283	-0.099358	-0.024990	0.091467	-0.626355	0.073793	-0.274685	0.725797
05727	-2.329409	-4.950195	8.317287	-0.102075	-0.027906	0.142042	-0.626352	0.073692	-0.274761	0.725782
05728	-2.336991	-4.914174	8.338351	-0.060989	-0.031573	0.143920	-0.626330	0.073549	-0.274759	0.725816
05729	-2.403793	-4.816477	8.406811	0.065969	0.003579	0.169636	-0.626299	0.073417	-0.274676	0.725888
05730	-2.540665	-4.755183	8.356945	0.122596	0.145722	0.130602	-0.626281	0.073380	-0.274541	0.725957
05731	-2.584920	-4.701733	8.341352	0.169736	0.191805	0.101982	-0.626267	0.073460	-0.274383	0.726021
05732	-2.596307	-4.728565	8.302234	0.131420	0.220709	0.084850	-0.626275	0.073680	-0.274236	0.726048
05733	-2.611736	-4.721555	8.283945	0.134325	0.245823	0.069595	-0.626310	0.073978	-0.274102	0.726038
05734	-2.469701	-4.720831	8.272895	0.103480	0.119350	0.026088	-0.626378	0.074281	-0.274015	0.725981
05735	-2.347541	-4.809122	8.241883	-0.009348	0.022319	0.014147	-0.626455	0.074521	-0.274002	0.725895
05736	-2.306448	-4.863324	8.175383	-0.092303	0.008591	-0.024944	-0.626523	0.074637	-0.274043	0.725809
05737	-2.208030	-4.844823	8.166081	-0.099284	-0.084092	-0.065089	-0.626567	0.074611	-0.274130	0.725740
05738	-2.173208	-4.861928	8.161997	-0.123235	-0.117624	-0.068440	-0.626583	0.074463	-0.274240	0.725701
05739	-2.186251	-4.826136	8.141136	-0.099923	-0.105275	-0.100411	-0.626555	0.074231	-0.274374	0.725698
05740	-2.338404	-4.758280	8.193872	0.013064	0.013901	-0.053152	-0.626475	0.074038	-0.274550	0.725720
05741	-2.490874	-4.788619	8.204636	0.023237	0.153619	0.007050	-0.626382	0.073954	-0.274700	0.725753
05742	-2.624594	-4.695822	8.297398	0.174399	0.244125	0.071443	-0.626304	0.073971	-0.274781	0.725787
05743	-2.661267	-4.680737	8.299826	0.198106	0.278138	0.074786	-0.626282	0.074140	-0.274760	0.725797
05744	-2.562081	-4.724881	8.312580	0.147300	0.186054	0.083344	-0.626322	0.074375	-0.274686	0.725766
05745	-2.469284	-4.768582	8.242985	0.060935	0.125897	0.024181	-0.626416	0.074597	-0.274596	0.725697
05746	-2.344711	-4.793297	8.191614	-0.008052	0.028073	-0.036438	-0.626511	0.074751	-0.274504	0.725634
05747	-2.195551	-4.860797	8.138096	-0.121247	-0.090658	-0.083685	-0.626622	0.074821	-0.274421	0.725562
05748	-2.174665	-4.806325	8.095580	-0.098349	-0.100050	-0.150976	-0.626691	0.074794	-0.274338	0.725536
05749	-2.206173	-4.726427	8.119588	-0.013021	-0.082643	-0.162453	-0.626713	0.074735	-0.274326	0.725528
05750	-2.236088	-4.744989	8.142407	-0.012741	-0.060789	-0.127134	-0.626670	0.074742	-0.274401	0.725536
05751	-2.311769	-4.774964	8.209882	0.008752	-0.008286	-0.037894	-0.626598	0.074796	-0.274500	0.725555
05752	-2.342543	-4.760576	8.294286	0.068025	-0.006184	0.033180	-0.626507	0.074876	-0.274595	0.725590
05753	-2.358948	-4.816638	8.377512	0.062677	-0.012232	0.134335	-0.626432	0.074965	-0.274662	0.725620
05754	-2.402626	-4.801268	8.297415	0.050790	0.053533	0.069946	-0.626370	0.075030	-0.274660	0.725667
05755	-2.406320	-4.766129	8.319161	0.091886	0.049975	0.071839	-0.626337	0.075052	-0.274534	0.725741
05756	-2.376430	-4.781256	8.193701	0.014575	0.064173	-0.033105	-0.626349	0.075101	-0.274324	0.725806
05757	-2.353899	-4.760646	8.048981	-0.039298	0.090513	-0.170024	-0.626393	0.075216	-0.274034	0.725865
05758	-2.340591	-4.731657	8.009449	-0.036801	0.093869	-0.220604	-0.626468	0.075357	-0.273725	0.725902
05759	-2.236668	-4.709911	8.003522	-0.043718	0.001156	-0.260703	-0.626539	0.075493	-0.273468	0.725923
05760	-2.182269	-4.734016	7.938260	-0.106240	-0.025405	-0.316518	-0.626599	0.075566	-0.273354	0.725907
05761	-2.169794	-4.707316	7.937392	-0.085937	-0.037890	-0.333225	-0.626597	0.075574	-0.273397	0.725891
05762	-2.171473	-4.708607	7.936167	-0.086056	-0.037695	-0.333226	-0.626600	0.075547	-0.273571	0.725827
05763	-2.170771	-4.772829	8.037566	-0.094419	-0.068556	-0.216803	-0.626579	0.075497	-0.273807	0.725760
05764	-2.191565	-4.767166	8.057205	-0.073737	-0.059442	-0.198198	-0.626513	0.075456	-0.274073	0.725721
05765	-2.254199	-4.771923	8.163599	-0.014076	-0.035554	-0.091805	-0.626426	0.075468	-0.274285	0.725715
05766	-2.374843	-4.786556	8.150730	-0.004403	0.082458	-0.066992	-0.626311	0.075579	-0.274418	0.725752
05767	-2.509398	-4.792945	8.160990	0.026071	0.209470	-0.023581	-0.626212	0.075835	-0.274401	0.725818
05768	-2.438961	-4.759535	8.196981	0.060759	0.134529	-0.026452	-0.626161	0.076200	-0.274281	0.725869
05769	-2.397707	-4.779403	8.152656	0.019052	0.116952	-0.063664	-0.626155	0.076609	-0.274144	0.725883
05770	-2.317659	-4.780880	8.208856	0.030324	0.029940	-0.034556	-0.626154	0.076912	-0.274047	0.725888
05771	-2.217991	-4.825437	8.220714	-0.020397	-0.062102	-0.025951	-0.626156	0.077087	-0.274082	0.725855
05772	-2.235032	-4.819391	8.241701	0.000277	-0.052972	-0.007345	-0.626124	0.077090	-0.274219	0.725831
05773	-2.255131	-4.812742	8.262217	0.020961	-0.043766	0.011261	-0.626084	0.076969	-0.274426	0.725800
05774	-2.312394	-4.885950	8.285248	-0.019620	0.003618	0.079967	-0.626038	0.076802	-0.274640	0.725776
05775	-2.354584	-4.869966	8.286816	0.004065	0.037647	0.083298	-0.625979	0.076663	-0.274802	0.725780
05776	-2.360800	-4.870490	8.244340	-0.013848	0.053740	0.049418	-0.625914	0.076613	-0.274886	0.725810
05777	-2.364610	-4.871425	8.202299	-0.031751	0.069901	0.015536	-0.625841	0.076681	-0.274912	0.725855
05778	-2.350320	-4.908986	8.262794	-0.037509	0.042155	0.081388	-0.625726	0.076864	-0.274918	0.725933
05779	-2.338503	-4.884370	8.220221	-0.034992	0.045565	0.030808	-0.625611	0.077050	-0.274865	0.726032
05780	-2.433776	-4.906469	8.228475	-0.028371	0.138773	0.070857	-0.625480	0.077220	-0.274810	0.726148
05781	-2.468044	-4.828933	8.170103	0.021361	0.188006	-0.008371	-0.625374	0.077385	-0.274693	0.726267
05782	-2.594386	-4.771028	8.203310	0.113399	0.298418	0.020213	-0.625316	0.077506	-0.274535	0.726363
05783	-2.599812	-4.673388	8.122797	0.162760	0.325964	-0.094320	-0.625324	0.077672	-0.274355	0.726406
05784	-2.457405	-4.704628	8.049543	0.073106	0.219082	-0.173488	-0.625396	0.077826	-0.274218	0.726380
05785	-2.340893	-4.727368	7.915378	-0.031318	0.152952	-0.301819	-0.625487	0.077914	-0.274163	0.726313
05786	-2.246624	-4.735080	7.989839	-0.023012	0.041134	-0.257395	-0.625552	0.077939	-0.274259	0.726218
05787	-2.144637	-4.814476	8.019724	-0.097117	-0.063003	-0.216792	-0.625574	0.077897	-0.274564	0.726088
05788	-2.189521	-4.829293	8.143763	-0.040505	-0.063912	-0.095115	-0.625511	0.077792	-0.275036	0.725975
05789	-2.347122	-4.892327	8.275755	0.002405	0.041026	0.083285	-0.625409	0.077665	-0.275569	0.725874
05790	-2.468075	-4.999907	8.528913	0.054453	0.077286	0.376713	-0.625306	0.077582	-0.276008	0.725805
05791	-2.572250	-5.024140	8.533200	0.061047	0.170592	0.416737	-0.625241	0.077548	-0.276255	0.725771
05792	-2.614477	-4.912377	8.535598	0.169763	0.200091	0.373309	-0.625211	0.077561	-0.276311	0.725774
05793	-2.674845	-4.887296	8.478763	0.178629	0.274822	0.327453	-0.625229	0.077690	-0.276167	0.725800
05794	-2.554426	-4.812584	8.388081	0.177070	0.188238	0.186272	-0.625304	0.077925	-0.275927	0.725801
05795	-2.404076	-4.877985	8.294557	0.046255	0.085180	0.105205	-0.625420	0.078173	-0.275612	0.725794
05796	-2.262922	-4.811454	8.222825	0.041717	-0.026228	-0.020684	-0.625514	0.078331	-0.275482	0.725745
05797	-2.136649	-4.993814	8.232161	-0.138218	-0.134851	0.048075	-0.625607	0.078362	-0.275424	0.725684
05798	-2.104221	-4.946916	8.125877	-0.153838	-0.137387	-0.071689	-0.625672	0.078236	-0.275450	0.725631
05799	-2.071797	-4.928179	8.184884	-0.118718	-0.190531	-0.039192	-0.625674	0.078061	-0.275579	0.725600
05800	-2.102229	-4.884517	8.186361	-0.074628	-0.169315	-0.052557	-0.625638	0.077877	-0.275740	0.725589
05801	-2.143843	-4.868109	8.188488	-0.050961	-0.135273	-0.049236	-0.625540	0.077749	-0.275877	0.725635
05802	-2.250441	-4.854289	8.216990	-0.003186	-0.045821	-0.007310	-0.625418	0.077721	-0.275983	0.725703
05803	-2.291108	-4.901414	8.239844	-0.023383	-0.011096	0.044665	-0.625280	0.077798	-0.276024	0.725798
05804	-2.417496	-4.879509	8.208810	0.009584	0.119015	0.037399	-0.625137	0.077917	-0.275978	0.725927
05805	-2.473724	-4.821032	8.256325	0.095233	0.158245	0.061240	-0.625020	0.078121	-0.275842	0.726057
05806	-2.355774	-4.809558	8.185507	0.049870	0.072303	-0.031259	-0.624946	0.078319	-0.275680	0.726160
05807	-2.316755	-4.826384	8.141956	0.008200	0.054649	-0.068473	-0.624923	0.078488	-0.275526	0.726221
05808	-2.296137	-4.834392	8.120722	-0.012702	0.045884	-0.087080	-0.624933	0.078573	-0.275389	0.726255
05809	-2.181384	-4.821231	8.049792	-0.058040	-0.040007	-0.179573	-0.624953	0.078614	-0.275293	0.726270
05810	-2.106259	-4.791439	7.981688	-0.079616	-0.092197	-0.268751	-0.624945	0.078552	-0.275291	0.726283
05811	-2.142459	-4.774794	8.025994	-0.038167	-0.073995	-0.231538	-0.624898	0.078424	-0.275387	0.726302
05812	-2.206878	-4.812521	8.029638	-0.055396	-0.014531	-0.194867	-0.624789	0.078311	-0.275579	0.726335
05813	-2.285405	-4.843766	8.095877	-0.034053	0.038136	-0.105692	-0.624645	0.078223	-0.275835	0.726371
05814	-2.348814	-4.849416	8.202038	0.025505	0.062158	0.000705	-0.624474	0.078156	-0.276108	0.726421
05815	-2.423449	-4.882606	8.308695	0.064628	0.099003	0.123779	-0.624316	0.078157	-0.276374	0.726456
05816	-2.442203	-4.940590	8.390012	0.059201	0.093029	0.224938	-0.624190	0.078173	-0.276574	0.726487
05817	-2.398885	-4.959995	8.467733	0.070905	0.027866	0.289436	-0.624086	0.078140	-0.276642	0.726553
05818	-2.300975	-5.036027	8.417391	-0.038726	-0.044696	0.262283	-0.624027	0.078067	-0.276584	0.726634
05819	-2.319668	-4.996991	8.275461	-0.068782	0.015137	0.128594	-0.624003	0.077934	-0.276372	0.726750
05820	-2.255229	-4.927644	8.149225	-0.084701	-0.009184	-0.026455	-0.623986	0.077837	-0.276062	0.726893
05821	-2.175542	-4.865569	7.960169	-0.139169	-0.026594	-0.234015	-0.623968	0.077764	-0.275679	0.727061
05822	-2.203792	-4.720183	7.926107	-0.027791	0.006028	-0.328005	-0.623903	0.077757	-0.275327	0.727251
05823	-2.174147	-4.698941	7.864268	-0.046015	0.000395	-0.397193	-0.623783	0.077841	-0.275154	0.727410
05824	-2.253092	-4.728594	7.850399	-0.060283	0.084667	-0.375845	-0.623605	0.077944	-0.275194	0.727536
05825	-2.381588	-4.799269	8.004286	-0.020528	0.164990	-0.182221	-0.623372	0.078040	-0.275438	0.727634
05826	-2.506419	-4.810336	8.176847	0.080871	0.228756	-0.003334	-0.623135	0.078103	-0.275836	0.727679
05827	-2.589789	-4.874019	8.323456	0.117306	0.262574	0.170312	-0.622915	0.078132	-0.276294	0.727691
05828	-2.720260	-4.947680	8.515462	0.174818	0.327040	0.397842	-0.622753	0.078086	-0.276654	0.727697
05829	-2.737084	-4.908388	8.680338	0.290050	0.285111	0.520112	-0.622670	0.077966	-0.276784	0.727732
05830	-2.670098	-4.939177	8.591522	0.206842	0.249382	0.445683	-0.622700	0.077807	-0.276664	0.727769
05831	-2.563800	-4.920495	8.440431	0.125987	0.195064	0.285397	-0.622795	0.077641	-0.276338	0.727829
05832	-2.345252	-4.852116	8.282480	0.058983	0.034849	0.068508	-0.622956	0.077486	-0.275902	0.727874
05833	-2.201901	-4.847513	8.089050	-0.063390	-0.037476	-0.128987	-0.623087	0.077370	-0.275460	0.727941
05834	-2.049501	-4.782529	7.956819	-0.106309	-0.142189	-0.307295	-0.623158	0.077247	-0.275129	0.728018
05835	-1.934488	-4.828309	7.949871	-0.177639	-0.243306	-0.317188	-0.623152	0.077210	-0.274999	0.728077
05836	-1.816275	-4.939719	8.044088	-0.257271	-0.375431	-0.210610	-0.623057	0.077214	-0.275047	0.728140
05837	-1.696206	-5.053387	8.178000	-0.319099	-0.523293	-0.070107	-0.622848	0.077157	-0.275246	0.728249
05838	-1.827377	-5.088529	8.435453	-0.202598	-0.478319	0.193284	-0.622535	0.077042	-0.275524	0.728424
05839	-1.988365	-5.080473	8.653718	-0.059697	-0.396395	0.409394	-0.622134	0.076934	-0.275751	0.728691
05840	-2.414881	-5.053668	8.811539	0.128677	-0.041913	0.627432	-0.621698	0.076951	-0.275709	0.729078
05841	-2.626656	-4.831507	8.832200	0.376534	0.144010	0.583851	-0.621329	0.077197	-0.275257	0.729537
05842	-2.595481	-4.899464	8.836730	0.311762	0.135921	0.613882	-0.621077	0.077728	-0.274430	0.730006
05843	-2.432964	-4.737207	8.627707	0.318405	0.058438	0.321063	-0.620930	0.078332	-0.273206	0.730526
05844	-2.027977	-4.420389	8.359005	0.375962	-0.240450	-0.152136	-0.620894	0.078972	-0.271776	0.731021
05845	-1.477973	-4.326070	8.013038	0.174060	-0.637804	-0.611008	-0.620882	0.079561	-0.270425	0.731468
05846	-0.793370	-4.537242	7.920761	-0.206357	-1.221914	-0.734209	-0.620785	0.079825	-0.269591	0.731830
05847	-0.364620	-4.902930	7.846093	-0.655460	-1.568863	-0.710936	-0.620466	0.079524	-0.269596	0.732131
05848	-0.426379	-5.169831	7.788608	-0.901921	-1.481035	-0.616796	-0.619772	0.078555	-0.270646	0.732436
05849	-0.843181	-5.501018	8.295517	-0.870471	-1.238841	0.061277	-0.618687	0.076992	-0.272472	0.732842
05850	-1.547858	-5.405090	8.774447	-0.414978	-0.770211	0.571731	-0.617296	0.075009	-0.274600	0.733426
05851	-2.232097	-5.326594	9.118627	-0.036612	-0.287926	0.977112	-0.615799	0.073030	-0.276590	0.734136
05852	-2.780610	-5.081588	9.428341	0.440444	0.062369	1.243980	-0.614411	0.071252	-0.278070	0.734915
05853	-3.187382	-5.171230	9.773977	0.608778	0.308773	1.674943	-0.613307	0.069997	-0.278719	0.735711
05854	-3.052066	-5.164909	9.701116	0.539842	0.188940	1.579235	-0.612492	0.068964	-0.278602	0.736531
05855	-2.738910	-5.222074	9.482919	0.301893	-0.027749	1.349996	-0.611931	0.068291	-0.277824	0.737354
05856	-2.508628	-5.271735	9.152021	0.037566	-0.116809	1.042208	-0.611489	0.067853	-0.276621	0.738213
05857	-2.078345	-5.299272	8.937673	-0.206873	-0.426644	0.773100	-0.611070	0.067527	-0.275211	0.739116
05858	-1.929893	-5.245731	8.656487	-0.341290	-0.455585	0.475792	-0.610540	0.067193	-0.273764	0.740121
05859	-2.090667	-4.873330	8.553566	-0.044547	-0.285936	0.247129	-0.609882	0.066842	-0.272340	0.741220
05860	-2.286445	-4.586481	8.410537	0.173006	-0.062333	0.034489	-0.609120	0.066669	-0.270944	0.742373
05861	-2.415251	-4.361801	8.262890	0.322659	0.106424	-0.168073	-0.608402	0.066679	-0.269587	0.743454
05862	-2.504831	-4.339730	8.220308	0.334697	0.227605	-0.194111	-0.607782	0.066880	-0.268274	0.744417
05863	-2.446433	-4.345418	8.189308	0.293090	0.209851	-0.231328	-0.607241	0.067241	-0.267019	0.745277
05864	-2.331752	-4.437081	8.156358	0.163115	0.149902	-0.241805	-0.606785	0.067634	-0.265821	0.746041
05865	-2.076687	-4.555432	8.052042	-0.056070	-0.017452	-0.331312	-0.606395	0.067959	-0.264672	0.746737
05866	-1.921943	-4.698035	7.954422	-0.268758	-0.091751	-0.380957	-0.606005	0.068165	-0.263613	0.747409
05867	-2.012782	-4.801415	7.997112	-0.326711	0.015047	-0.275829	-0.605610	0.068283	-0.262512	0.748106
05868	-2.166416	-4.661620	8.016152	-0.167310	0.158893	-0.292737	-0.605157	0.068492	-0.261252	0.748894
05869	-2.424543	-4.390843	7.977255	0.109798	0.406575	-0.399024	-0.604683	0.068948	-0.259721	0.749766
05870	-2.686097	-4.149525	7.942472	0.366421	0.666967	-0.488670	-0.604254	0.069883	-0.257919	0.750647
05871	-2.712833	-4.063534	7.836988	0.401304	0.756695	-0.617236	-0.603917	0.071346	-0.255898	0.751472
05872	-2.601765	-4.094995	7.685521	0.282611	0.752334	-0.759550	-0.603669	0.073192	-0.253769	0.752215
05873	-2.364845	-4.167702	7.607454	0.128392	0.615020	-0.843819	-0.603457	0.075208	-0.251692	0.752884
05874	-2.148966	-4.296709	7.530401	-0.066768	0.503127	-0.894790	-0.603250	0.077188	-0.249831	0.753469
05875	-1.959234	-4.420401	7.430510	-0.258953	0.416050	-0.961093	-0.603011	0.078932	-0.248245	0.754004
05876	-1.850466	-4.474069	7.477006	-0.309134	0.345597	-0.917068	-0.602737	0.080225	-0.247020	0.754488
05877	-1.981877	-4.504235	7.564633	-0.260975	0.478813	-0.804790	-0.602409	0.081045	-0.246134	0.754952
05878	-2.060439	-4.530169	7.581916	-0.254604	0.572145	-0.764975	-0.602080	0.081445	-0.245504	0.755377
05879	-2.053899	-4.365360	7.641084	-0.090085	0.535831	-0.792388	-0.601806	0.081441	-0.245074	0.755735
05880	-2.100706	-4.273798	7.728594	0.033758	0.546724	-0.751262	-0.601576	0.081155	-0.244841	0.756024
05881	-2.109810	-4.233615	7.750531	0.074893	0.543293	-0.749313	-0.601368	0.080785	-0.244731	0.756265
05882	-2.079265	-4.268878	7.792101	0.048421	0.506672	-0.702011	-0.601170	0.080423	-0.244698	0.756471
05883	-2.113553	-4.311405	7.861210	0.045929	0.525711	-0.616196	-0.600963	0.080261	-0.244662	0.756665
05884	-2.023076	-4.395055	7.961376	-0.009875	0.427470	-0.506237	-0.600704	0.080356	-0.244566	0.756892
05885	-2.004121	-4.430706	7.983250	-0.033384	0.415694	-0.474271	-0.600415	0.080820	-0.244395	0.757127
05886	-1.727631	-4.478940	8.166418	-0.066209	0.121493	-0.340790	-0.600067	0.081491	-0.244223	0.757386
05887	-1.596313	-4.673653	8.246910	-0.227859	0.018651	-0.202772	-0.599695	0.082232	-0.244076	0.757648
05888	-1.528435	-4.787918	8.287633	-0.318963	-0.026326	-0.125444	-0.599252	0.082829	-0.243947	0.757975
05889	-1.750367	-4.734559	8.392972	-0.161764	0.158203	-0.021334	-0.598731	0.083276	-0.243733	0.758407
05890	-1.883324	-4.592703	8.422815	0.015100	0.264594	-0.039592	-0.598195	0.083679	-0.243436	0.758881
05891	-2.238043	-4.402000	8.496536	0.310688	0.562006	-0.006303	-0.597708	0.084010	-0.242986	0.759372
05892	-2.491516	-4.219207	8.499129	0.540814	0.785649	-0.048733	-0.597329	0.084435	-0.242379	0.759817
05893	-2.517517	-4.120320	8.399633	0.593209	0.837822	-0.178639	-0.597122	0.084994	-0.241651	0.760148
05894	-2.423195	-4.185079	8.296422	0.468920	0.805523	-0.255041	-0.597064	0.085596	-0.240939	0.760353
05895	-2.255220	-4.152742	8.178037	0.402876	0.688504	-0.401247	-0.597136	0.086163	-0.240388	0.760406
05896	-1.896167	-4.211230	8.123156	0.233502	0.383502	-0.479201	-0.597293	0.086619	-0.240150	0.760307
05897	-1.589168	-4.434246	8.162433	-0.023137	0.123516	-0.389444	-0.597471	0.086881	-0.240339	0.760077
05898	-1.467461	-4.624784	8.279750	-0.166982	0.004869	-0.217458	-0.597625	0.086922	-0.240848	0.759790
05899	-1.330163	-4.658629	8.509367	-0.131332	-0.190708	-0.023518	-0.597699	0.086845	-0.241529	0.759525
05900	-1.356816	-4.706289	8.694932	-0.080452	-0.218857	0.164163	-0.597703	0.086795	-0.242238	0.759301
05901	-1.376458	-4.752887	8.921532	-0.011766	-0.262639	0.385802	-0.597652	0.086942	-0.242819	0.759139
05902	-1.328486	-4.709008	9.011888	0.061769	-0.344103	0.435802	-0.597552	0.087346	-0.243185	0.759054
05903	-1.236020	-4.741494	9.082027	0.049934	-0.442921	0.497213	-0.597432	0.087966	-0.243347	0.759025
05904	-1.118344	-4.904984	9.136504	-0.088263	-0.533777	0.603288	-0.597297	0.088724	-0.243309	0.759056
05905	-1.073605	-4.890077	9.150509	-0.070780	-0.570990	0.602025	-0.597110	0.089420	-0.243129	0.759178
05906	-0.925330	-4.942485	9.114981	-0.162624	-0.681354	0.573677	-0.596869	0.090036	-0.242943	0.759355
05907	-0.877035	-5.061507	8.990166	-0.324879	-0.663407	0.515210	-0.596566	0.090438	-0.242780	0.759597
05908	-0.855222	-5.032711	9.029114	-0.286663	-0.691624	0.532551	-0.596203	0.090539	-0.242645	0.759913
05909	-0.898181	-4.895833	8.987648	-0.175219	-0.658866	0.438601	-0.595794	0.090435	-0.242526	0.760284
05910	-0.913229	-4.821378	9.030101	-0.092838	-0.665960	0.442568	-0.595320	0.090151	-0.242384	0.760734
05911	-1.022204	-4.748855	9.042444	-0.001384	-0.576857	0.435705	-0.594814	0.089761	-0.242223	0.761228
05912	-1.089376	-4.725948	8.989925	0.007365	-0.502283	0.389652	-0.594276	0.089340	-0.242056	0.761750
05913	-1.121101	-4.741483	8.977263	-0.010243	-0.464477	0.390936	-0.593713	0.088940	-0.241848	0.762302
05914	-1.072235	-4.656146	8.992320	0.048220	-0.527206	0.356429	-0.593155	0.088581	-0.241578	0.762864
05915	-0.915019	-4.716189	8.794540	-0.138438	-0.608578	0.189017	-0.592590	0.088275	-0.241268	0.763436
05916	-0.655992	-4.916155	8.760756	-0.406871	-0.803434	0.214211	-0.591986	0.087896	-0.240955	0.764047
05917	-0.415405	-4.917780	8.802134	-0.469413	-1.038348	0.214085	-0.591280	0.087342	-0.240761	0.764718
05918	-0.288076	-4.979469	8.817577	-0.563883	-1.151705	0.236361	-0.590434	0.086599	-0.240761	0.765456
05919	-0.304828	-5.021402	8.909755	-0.569303	-1.157351	0.337562	-0.589425	0.085629	-0.240951	0.766282
05920	-0.544723	-4.955262	9.102003	-0.376645	-1.004025	0.509514	-0.588266	0.084475	-0.241228	0.767213
