// General information: 
//  MT Manager version: 2021.0.0 
//  XDA version: 2021.0.0 build 5908 rev 109668 built on 2021-04-19
// Device information: 
//  DeviceId: 00B47F0C
//  ProductCode: MTW2-3A7G6
//  Firmware Version: 4.6.0
//  Hardware Version: 2.0.0
// Device settings: 
//  Filter Profile: human(46.1)
//  Option Flags: Orientation Smoother Disabled, Position/Velocity Smoother Disabled, Continuous Zero Rotation Update Disabled, AHS Disabled, ICC Disabled
// Coordinate system: ENU
PacketCounter	Acc_X	Acc_Y	Acc_Z	FreeAcc_E	FreeAcc_N	FreeAcc_U	Quat_q0	Quat_q1	Quat_q2	Quat_q3
04744	-5.109245	-0.607078	-8.523669	0.240717	-0.051081	0.140468	-0.142811	-0.726185	-0.629834	0.235732
04745	-5.190099	-0.605621	-8.612367	0.250441	-0.079530	0.257453	-0.142628	-0.726136	-0.629959	0.235660
04746	-5.188210	-0.649621	-8.555898	0.200039	-0.102514	0.211903	-0.142474	-0.726060	-0.630118	0.235562
04747	-5.189237	-0.762006	-8.519443	0.084998	-0.107020	0.190865	-0.142339	-0.725985	-0.630276	0.235451
04748	-5.128047	-0.869958	-8.463510	-0.023042	-0.068240	0.121068	-0.142216	-0.725914	-0.630417	0.235369
04749	-5.023228	-0.910394	-8.475359	-0.049347	0.030476	0.081249	-0.142072	-0.725851	-0.630543	0.235314
04750	-5.082100	-0.888928	-8.505578	-0.027770	-0.011321	0.135271	-0.141952	-0.725798	-0.630649	0.235264
04751	-5.136775	-0.744017	-8.446529	0.102069	-0.112534	0.099970	-0.141873	-0.725700	-0.630766	0.235299
04752	-5.260692	-0.699563	-8.503529	0.145258	-0.196332	0.208022	-0.141947	-0.725554	-0.630850	0.235479
04753	-5.303937	-0.630438	-8.568476	0.222195	-0.207649	0.279661	-0.142116	-0.725388	-0.630898	0.235761
04754	-5.225483	-0.607686	-8.574998	0.255723	-0.134823	0.243255	-0.142283	-0.725218	-0.630961	0.236015
04755	-5.169028	-0.645864	-8.582598	0.227036	-0.071842	0.224258	-0.142396	-0.725084	-0.631027	0.236182
04756	-5.089305	-0.677522	-8.572142	0.202963	-0.001309	0.177332	-0.142439	-0.724983	-0.631119	0.236218
04757	-5.051455	-0.775094	-8.671002	0.126218	0.094931	0.251074	-0.142409	-0.724941	-0.631215	0.236110
04758	-5.050559	-0.829635	-8.653591	0.068581	0.092851	0.240559	-0.142331	-0.724963	-0.631281	0.235913
04759	-5.107944	-0.833380	-8.587858	0.047201	0.006816	0.214009	-0.142184	-0.725040	-0.631330	0.235635
04760	-5.224292	-0.772614	-8.522048	0.083269	-0.140844	0.211717	-0.142034	-0.725122	-0.631369	0.235367
04761	-5.302183	-0.754662	-8.485342	0.085885	-0.233145	0.218362	-0.141971	-0.725171	-0.631391	0.235197
04762	-5.358391	-0.634477	-8.416807	0.186735	-0.335368	0.177819	-0.142024	-0.725169	-0.631378	0.235203
04763	-5.340802	-0.654862	-8.474310	0.177238	-0.286063	0.219944	-0.142198	-0.725091	-0.631376	0.235343
04764	-5.286264	-0.718441	-8.471805	0.119557	-0.224087	0.195695	-0.142518	-0.724949	-0.631378	0.235582
04765	-5.213980	-0.817304	-8.478510	0.030847	-0.135081	0.173278	-0.142818	-0.724796	-0.631384	0.235858
04766	-5.120144	-0.910492	-8.466160	-0.053252	-0.038523	0.122926	-0.143078	-0.724664	-0.631394	0.236079
04767	-5.020887	-0.907048	-8.444489	-0.043539	0.040417	0.053310	-0.143251	-0.724574	-0.631410	0.236206
04768	-4.959434	-0.860217	-8.482317	0.013977	0.106976	0.050072	-0.143309	-0.724557	-0.631405	0.236234
04769	-4.996489	-0.747337	-8.520560	0.126942	0.075908	0.091932	-0.143261	-0.724613	-0.631386	0.236143
04770	-5.010924	-0.642150	-8.491701	0.222947	0.030325	0.065575	-0.143207	-0.724718	-0.631330	0.236003
04771	-5.153530	-0.656114	-8.463559	0.189581	-0.106258	0.115754	-0.143122	-0.724835	-0.631278	0.235837
04772	-5.234277	-0.664677	-8.504105	0.177557	-0.156584	0.192472	-0.143087	-0.724958	-0.631196	0.235697
04773	-5.274221	-0.675451	-8.456390	0.153754	-0.214303	0.173033	-0.143081	-0.725055	-0.631116	0.235618
04774	-5.273949	-0.687857	-8.408175	0.132136	-0.236152	0.132757	-0.143133	-0.725134	-0.631028	0.235578
04775	-5.150840	-0.704040	-8.447944	0.132199	-0.107980	0.105248	-0.143225	-0.725195	-0.630946	0.235555
04776	-5.031484	-0.817520	-8.410206	0.024096	-0.005175	0.021698	-0.143311	-0.725252	-0.630866	0.235540
04777	-4.911755	-0.917131	-8.421257	-0.062240	0.119551	-0.021576	-0.143366	-0.725329	-0.630770	0.235529
04778	-4.952310	-0.886095	-8.430635	-0.035861	0.085184	0.004522	-0.143405	-0.725423	-0.630669	0.235484
04779	-5.029385	-0.743847	-8.390109	0.089173	-0.023443	-0.002822	-0.143406	-0.725515	-0.630562	0.235488
04780	-5.127804	-0.607958	-8.368820	0.209219	-0.139333	0.017773	-0.143434	-0.725590	-0.630462	0.235507
04781	-5.171206	-0.632962	-8.358561	0.178190	-0.176136	0.033367	-0.143507	-0.725645	-0.630365	0.235553
04782	-5.153555	-0.681325	-8.319309	0.125350	-0.170818	-0.005071	-0.143576	-0.725692	-0.630281	0.235590
04783	-5.051263	-0.691285	-8.339056	0.127831	-0.070974	-0.039683	-0.143610	-0.725740	-0.630215	0.235598
04784	-4.969550	-0.722081	-8.241909	0.089390	-0.043455	-0.161935	-0.143663	-0.725783	-0.630154	0.235597
04785	-4.932806	-0.819340	-8.252434	-0.001707	0.009815	-0.163519	-0.143699	-0.725837	-0.630072	0.235626
04786	-4.876833	-0.966458	-8.224597	-0.145790	0.068326	-0.203545	-0.143675	-0.725944	-0.629953	0.235631
04787	-4.877294	-0.978821	-8.352164	-0.138511	0.132315	-0.093220	-0.143583	-0.726101	-0.629807	0.235593
04788	-4.952337	-0.822921	-8.449219	0.022272	0.088896	0.015015	-0.143420	-0.726288	-0.629644	0.235554
04789	-5.049089	-0.715827	-8.419840	0.113709	-0.028280	0.030365	-0.143266	-0.726478	-0.629469	0.235528
04790	-5.107819	-0.665817	-8.370947	0.149738	-0.111894	0.014364	-0.143191	-0.726614	-0.629306	0.235590
04791	-5.087752	-0.660952	-8.350768	0.154685	-0.104424	-0.013576	-0.143175	-0.726698	-0.629147	0.235765
04792	-5.050415	-0.705794	-8.291025	0.106645	-0.091720	-0.079952	-0.143210	-0.726749	-0.629004	0.235966
04793	-5.035026	-0.755925	-8.338378	0.068349	-0.043549	-0.043098	-0.143237	-0.726785	-0.628880	0.236170
04794	-4.994402	-0.718036	-8.307272	0.106707	-0.027398	-0.093723	-0.143262	-0.726779	-0.628813	0.236353
04795	-4.897618	-0.813233	-8.385050	0.037144	0.111995	-0.068810	-0.143281	-0.726764	-0.628770	0.236500
04796	-4.898705	-0.786375	-8.481414	0.080264	0.156356	0.011731	-0.143274	-0.726770	-0.628720	0.236618
04797	-4.898029	-0.746214	-8.539175	0.130792	0.179656	0.057250	-0.143192	-0.726820	-0.628647	0.236710
04798	-4.996411	-0.639826	-8.508749	0.222042	0.062615	0.072609	-0.143090	-0.726908	-0.628559	0.236736
04799	-5.036025	-0.625781	-8.469808	0.227036	0.006037	0.058443	-0.142964	-0.726999	-0.628466	0.236778
04800	-5.101427	-0.714207	-8.460352	0.133422	-0.040327	0.091492	-0.142875	-0.727088	-0.628361	0.236839
04801	-5.121015	-0.693939	-8.489517	0.157575	-0.046500	0.124679	-0.142762	-0.727177	-0.628257	0.236908
04802	-5.081092	-0.738497	-8.519450	0.123887	0.009202	0.133592	-0.142665	-0.727263	-0.628165	0.236946
04803	-5.038548	-0.727769	-8.568820	0.147993	0.067074	0.152999	-0.142550	-0.727327	-0.628104	0.236982
04804	-5.041735	-0.798063	-8.588511	0.083130	0.085906	0.177519	-0.142527	-0.727349	-0.628050	0.237072
04805	-5.040550	-0.744268	-8.607009	0.140881	0.088279	0.188014	-0.142507	-0.727350	-0.628001	0.237211
04806	-5.081978	-0.716531	-8.615561	0.167261	0.053911	0.214123	-0.142466	-0.727361	-0.627955	0.237323
04807	-5.080831	-0.676833	-8.673646	0.217795	0.077219	0.259636	-0.142384	-0.727357	-0.627952	0.237391
04808	-5.141134	-0.641493	-8.663354	0.246595	0.014525	0.278668	-0.142317	-0.727338	-0.627967	0.237448
04809	-5.144912	-0.725800	-8.634049	0.160348	0.011144	0.262921	-0.142317	-0.727280	-0.628014	0.237504
04810	-5.084682	-0.763814	-8.644077	0.131450	0.074232	0.243887	-0.142305	-0.727263	-0.628032	0.237517
04811	-4.979412	-0.748811	-8.586283	0.148362	0.132193	0.139198	-0.142235	-0.727239	-0.628073	0.237521
04812	-4.996648	-0.700249	-8.537746	0.186752	0.084275	0.102350	-0.142211	-0.727245	-0.628091	0.237470
04813	-5.019386	-0.760932	-8.626424	0.138872	0.117676	0.195075	-0.142172	-0.727259	-0.628107	0.237410
04814	-5.079305	-0.722704	-8.704775	0.182034	0.098001	0.289392	-0.142188	-0.727299	-0.628080	0.237350
04815	-5.100273	-0.741398	-8.675808	0.155809	0.068595	0.277066	-0.142205	-0.727350	-0.628028	0.237319
04816	-5.099642	-0.726415	-8.636698	0.162972	0.047846	0.242049	-0.142273	-0.727401	-0.627955	0.237315
04817	-5.140938	-0.695454	-8.733771	0.203919	0.056383	0.343439	-0.142305	-0.727458	-0.627876	0.237332
04818	-5.202308	-0.656766	-8.723122	0.232713	-0.006318	0.362479	-0.142413	-0.727493	-0.627810	0.237335
04819	-5.270213	-0.755579	-8.663778	0.117715	-0.074895	0.355283	-0.142541	-0.727504	-0.627763	0.237347
04820	-5.292335	-0.745833	-8.643138	0.120080	-0.103034	0.348212	-0.142692	-0.727484	-0.627740	0.237379
04821	-5.251298	-0.718279	-8.564083	0.137038	-0.109126	0.257312	-0.142865	-0.727455	-0.627730	0.237390
04822	-5.131736	-0.790949	-8.495839	0.064913	-0.026196	0.143953	-0.143026	-0.727406	-0.627752	0.237385
04823	-5.093661	-0.818062	-8.573616	0.053004	0.051469	0.193113	-0.143174	-0.727343	-0.627796	0.237372
04824	-4.968040	-0.766455	-8.593410	0.117663	0.161099	0.140994	-0.143291	-0.727296	-0.627845	0.237316
04825	-4.949668	-0.813585	-8.642884	0.079376	0.209286	0.177832	-0.143341	-0.727267	-0.627905	0.237217
04826	-5.029316	-0.766655	-8.613607	0.110592	0.118253	0.189802	-0.143395	-0.727254	-0.627954	0.237093
04827	-4.983362	-0.697841	-8.594928	0.177930	0.135401	0.144404	-0.143416	-0.727246	-0.628001	0.236981
04828	-5.083473	-0.642268	-8.634065	0.225938	0.059075	0.224580	-0.143492	-0.727273	-0.628014	0.236819
04829	-5.098468	-0.562715	-8.595847	0.293327	0.012183	0.192982	-0.143504	-0.727315	-0.628034	0.236625
04830	-5.111990	-0.469422	-8.518832	0.367720	-0.055549	0.126377	-0.143557	-0.727342	-0.628080	0.236391
04831	-5.111819	-0.507667	-8.461740	0.317484	-0.078728	0.080870	-0.143682	-0.727310	-0.628149	0.236228
04832	-5.117993	-0.642769	-8.325809	0.159046	-0.127364	-0.020620	-0.143949	-0.727229	-0.628206	0.236163
04833	-5.063952	-0.759367	-8.306075	0.043940	-0.067869	-0.055404	-0.144236	-0.727125	-0.628249	0.236195
04834	-5.047697	-0.763776	-8.323658	0.041454	-0.039369	-0.048333	-0.144570	-0.726998	-0.628295	0.236260
04835	-5.011606	-0.804804	-8.263634	-0.006415	-0.026841	-0.114709	-0.144810	-0.726866	-0.628375	0.236307
04836	-5.058595	-0.855303	-8.330771	-0.052077	-0.021641	-0.029053	-0.145017	-0.726762	-0.628449	0.236302
04837	-5.040087	-0.889435	-8.252586	-0.097525	-0.037443	-0.102495	-0.145123	-0.726689	-0.628530	0.236248
04838	-5.078332	-0.816469	-8.320490	-0.020766	-0.048572	-0.030876	-0.145143	-0.726677	-0.628581	0.236136
04839	-5.089889	-0.669965	-8.261887	0.111434	-0.114107	-0.086991	-0.145083	-0.726704	-0.628627	0.235967
04840	-5.125286	-0.612468	-8.194691	0.152234	-0.190385	-0.130889	-0.145015	-0.726740	-0.628665	0.235795
04841	-5.121930	-0.612503	-8.108615	0.138006	-0.233366	-0.206155	-0.144952	-0.726753	-0.628714	0.235664
04842	-5.062065	-0.703770	-8.189471	0.065867	-0.129567	-0.160428	-0.144897	-0.726759	-0.628760	0.235557
04843	-5.104892	-0.770344	-8.210529	-0.001171	-0.146565	-0.115025	-0.144857	-0.726785	-0.628765	0.235487
04844	-5.145642	-0.781695	-8.250408	-0.010812	-0.161147	-0.059133	-0.144796	-0.726825	-0.628755	0.235429
04845	-5.124943	-0.802914	-8.310089	-0.020299	-0.111798	-0.017057	-0.144736	-0.726863	-0.628732	0.235411
04846	-5.142947	-0.753559	-8.348994	0.032455	-0.116686	0.021376	-0.144707	-0.726896	-0.628702	0.235408
04847	-5.143390	-0.768254	-8.300207	0.011016	-0.138721	-0.018876	-0.144696	-0.726904	-0.628671	0.235472
04848	-5.101767	-0.743308	-8.309290	0.042130	-0.101678	-0.034512	-0.144692	-0.726926	-0.628605	0.235581
04849	-5.119037	-0.654204	-8.317623	0.131103	-0.126471	-0.025850	-0.144594	-0.726942	-0.628579	0.235663
04850	-5.223036	-0.657911	-8.336393	0.121520	-0.205079	0.043863	-0.144561	-0.726944	-0.628560	0.235727
04851	-5.264033	-0.644221	-8.296548	0.126513	-0.261666	0.029736	-0.144506	-0.726916	-0.628566	0.235828
04852	-5.165292	-0.726306	-8.336063	0.063958	-0.143096	0.019563	-0.144509	-0.726877	-0.628562	0.235957
04853	-5.002202	-0.749020	-8.375145	0.066367	0.020751	-0.028962	-0.144500	-0.726838	-0.628556	0.236100
04854	-4.902152	-0.789116	-8.472839	0.054202	0.162585	0.006346	-0.144479	-0.726809	-0.628558	0.236198
04855	-4.883070	-0.812003	-8.531383	0.044717	0.211940	0.048413	-0.144398	-0.726804	-0.628560	0.236258
04856	-4.985315	-0.802363	-8.511419	0.042349	0.112383	0.083119	-0.144287	-0.726827	-0.628556	0.236265
04857	-5.085435	-0.765182	-8.501589	0.068986	0.013871	0.123067	-0.144121	-0.726860	-0.628559	0.236255
04858	-5.270486	-0.779927	-8.472298	0.033083	-0.158249	0.194310	-0.143981	-0.726860	-0.628592	0.236257
04859	-5.435067	-0.774878	-8.471707	0.023766	-0.300993	0.277855	-0.143903	-0.726795	-0.628658	0.236325
04860	-5.514238	-0.677028	-8.460076	0.112592	-0.389701	0.300350	-0.143916	-0.726691	-0.628727	0.236456
04861	-5.454006	-0.660884	-8.487771	0.141492	-0.324438	0.291764	-0.144008	-0.726556	-0.628788	0.236653
04862	-5.335559	-0.695256	-8.564213	0.134117	-0.175219	0.299118	-0.144133	-0.726416	-0.628829	0.236896
04863	-5.111744	-0.686167	-8.592074	0.172482	0.032856	0.206976	-0.144249	-0.726299	-0.628844	0.237145
04864	-4.969430	-0.645485	-8.629237	0.234707	0.170800	0.161848	-0.144364	-0.726210	-0.628837	0.237366
04865	-4.890258	-0.664385	-8.579142	0.217999	0.220161	0.079821	-0.144418	-0.726183	-0.628797	0.237520
04866	-4.950453	-0.600958	-8.489400	0.261218	0.115552	0.028880	-0.144402	-0.726223	-0.628734	0.237574
04867	-5.012832	-0.619845	-8.459878	0.232621	0.050434	0.037469	-0.144310	-0.726280	-0.628691	0.237571
04868	-5.139088	-0.697719	-8.430818	0.139059	-0.059958	0.084423	-0.144256	-0.726340	-0.628654	0.237517
04869	-5.265238	-0.746901	-8.499110	0.088892	-0.126227	0.211864	-0.144230	-0.726367	-0.628634	0.237505
04870	-5.264418	-0.704995	-8.557129	0.139224	-0.102765	0.257348	-0.144296	-0.726367	-0.628591	0.237576
04871	-5.240471	-0.546519	-8.632584	0.309764	-0.067418	0.295835	-0.144473	-0.726297	-0.628559	0.237767
04872	-5.145719	-0.626993	-8.581654	0.232815	0.008069	0.210389	-0.144752	-0.726195	-0.628503	0.238056
04873	-5.032154	-0.700679	-8.598474	0.175250	0.133890	0.172233	-0.145067	-0.726103	-0.628421	0.238362
04874	-4.934087	-0.684407	-8.536862	0.191912	0.191879	0.067494	-0.145293	-0.726045	-0.628335	0.238627
04875	-4.855702	-0.674279	-8.495544	0.204000	0.242387	-0.009301	-0.145475	-0.726005	-0.628262	0.238831
04876	-4.878835	-0.652623	-8.434307	0.213565	0.193267	-0.051360	-0.145623	-0.725962	-0.628229	0.238959
04877	-4.903625	-0.699505	-8.393943	0.158531	0.162691	-0.068894	-0.145716	-0.725956	-0.628197	0.239003
04878	-4.971578	-0.785004	-8.471364	0.079293	0.159410	0.039476	-0.145763	-0.725965	-0.628179	0.238995
04879	-5.049782	-0.684158	-8.460137	0.168325	0.070592	0.061976	-0.145751	-0.725992	-0.628164	0.238959
04880	-5.108618	-0.632873	-8.410602	0.204325	-0.013075	0.046055	-0.145769	-0.726002	-0.628161	0.238927
04881	-5.192665	-0.656444	-8.399924	0.170944	-0.085558	0.082608	-0.145806	-0.725978	-0.628171	0.238953
04882	-5.031647	-0.746352	-8.372502	0.093927	0.053929	-0.016690	-0.145907	-0.725945	-0.628164	0.239008
04883	-4.970405	-0.728701	-8.313089	0.108433	0.076096	-0.100539	-0.146026	-0.725857	-0.628180	0.239160
04884	-4.912307	-0.738734	-8.331385	0.108307	0.140292	-0.114386	-0.146158	-0.725766	-0.628188	0.239337
04885	-4.891849	-0.678464	-8.329437	0.170843	0.150044	-0.131865	-0.146209	-0.725695	-0.628205	0.239477
04886	-4.977334	-0.703254	-8.317690	0.137245	0.077653	-0.095305	-0.146244	-0.725659	-0.628217	0.239531
04887	-5.043659	-0.790565	-8.307347	0.043837	0.031187	-0.062169	-0.146239	-0.725639	-0.628239	0.239536
04888	-5.168712	-0.799160	-8.344879	0.029470	-0.054771	0.035530	-0.146204	-0.725626	-0.628258	0.239547
04889	-5.231179	-0.818074	-8.314867	0.000876	-0.119888	0.044144	-0.146191	-0.725601	-0.628278	0.239579
04890	-5.167750	-0.773208	-8.354240	0.058354	-0.053378	0.040767	-0.146160	-0.725589	-0.628276	0.239642
04891	-5.065622	-0.771653	-8.423429	0.082403	0.068547	0.046249	-0.146146	-0.725582	-0.628247	0.239743
04892	-4.960757	-0.729727	-8.374803	0.127856	0.127651	-0.053267	-0.146137	-0.725573	-0.628206	0.239887
04893	-4.922034	-0.747022	-8.413459	0.123160	0.184388	-0.039173	-0.146092	-0.725587	-0.628144	0.240034
04894	-5.026059	-0.737815	-8.391561	0.120789	0.084824	-0.004418	-0.146028	-0.725623	-0.628067	0.240164
04895	-5.025883	-0.726392	-8.351655	0.128143	0.063923	-0.039419	-0.145966	-0.725642	-0.628007	0.240303
04896	-5.071627	-0.795698	-8.370079	0.060903	0.047038	0.006011	-0.145914	-0.725638	-0.627973	0.240436
04897	-5.075028	-0.825180	-8.447456	0.046641	0.089054	0.076005	-0.145875	-0.725587	-0.627991	0.240564
04898	-5.098970	-0.847047	-8.504700	0.034584	0.102823	0.138952	-0.145878	-0.725492	-0.628041	0.240718
04899	-5.121092	-0.813786	-8.581055	0.080349	0.118827	0.212369	-0.145868	-0.725383	-0.628112	0.240867
04900	-5.100253	-0.768865	-8.619179	0.135464	0.149637	0.229884	-0.145840	-0.725263	-0.628212	0.240986
04901	-5.057279	-0.718309	-8.638584	0.195582	0.187723	0.219445	-0.145749	-0.725159	-0.628319	0.241075
04902	-5.014205	-0.681560	-8.697864	0.248275	0.246862	0.244004	-0.145615	-0.725058	-0.628459	0.241094
04903	-5.092758	-0.639881	-8.668119	0.279710	0.155734	0.256048	-0.145438	-0.724989	-0.628587	0.241074
04904	-5.090518	-0.684251	-8.611300	0.229239	0.132588	0.210582	-0.145242	-0.724952	-0.628709	0.240986
04905	-5.069180	-0.777289	-8.604427	0.140562	0.157514	0.201920	-0.145002	-0.724929	-0.628840	0.240858
04906	-5.067055	-0.848531	-8.627049	0.075680	0.176314	0.226446	-0.144740	-0.724927	-0.628970	0.240681
04907	-5.144874	-0.861043	-8.668398	0.063905	0.125979	0.303255	-0.144451	-0.724922	-0.629120	0.240480
04908	-5.198385	-0.798139	-8.670860	0.121497	0.064418	0.327586	-0.144234	-0.724916	-0.629258	0.240263
04909	-5.209502	-0.680981	-8.692714	0.239280	0.040799	0.341474	-0.144064	-0.724896	-0.629383	0.240099
04910	-5.204947	-0.653890	-8.704476	0.268009	0.042102	0.346709	-0.143997	-0.724845	-0.629506	0.239973
04911	-5.201182	-0.598679	-8.724874	0.325767	0.044497	0.357171	-0.144000	-0.724757	-0.629627	0.239918
04912	-5.182555	-0.675361	-8.676809	0.244065	0.048512	0.313520	-0.144062	-0.724649	-0.629751	0.239881
04913	-5.226497	-0.700435	-8.754259	0.227450	0.054852	0.404415	-0.144168	-0.724521	-0.629873	0.239884
04914	-5.210585	-0.790141	-8.744337	0.138541	0.079845	0.395759	-0.144311	-0.724390	-0.629988	0.239894
04915	-5.190896	-0.797282	-8.675424	0.121878	0.065134	0.327576	-0.144435	-0.724249	-0.630116	0.239906
04916	-5.190840	-0.782611	-8.635843	0.129002	0.044292	0.292583	-0.144550	-0.724133	-0.630243	0.239853
04917	-5.125112	-0.707971	-8.597424	0.201104	0.068753	0.219188	-0.144598	-0.724047	-0.630370	0.239751
04918	-5.061690	-0.743593	-8.521388	0.157765	0.088629	0.124865	-0.144621	-0.724009	-0.630483	0.239558
04919	-5.057233	-0.699432	-8.582050	0.208317	0.112005	0.170320	-0.144572	-0.724031	-0.630579	0.239264
04920	-5.094200	-0.722353	-8.575437	0.177073	0.075287	0.186000	-0.144508	-0.724081	-0.630685	0.238874
04921	-5.128565	-0.703518	-8.539831	0.182067	0.018690	0.171917	-0.144448	-0.724123	-0.630801	0.238476
04922	-5.271482	-0.783704	-8.532860	0.083716	-0.099083	0.246914	-0.144475	-0.724153	-0.630891	0.238128
04923	-5.292934	-0.881992	-8.565249	-0.014524	-0.088866	0.294164	-0.144556	-0.724155	-0.630962	0.237886
04924	-5.271115	-0.871066	-8.635053	0.004573	-0.038252	0.341428	-0.144739	-0.724108	-0.631045	0.237700
04925	-5.287082	-0.735303	-8.614387	0.129560	-0.082849	0.320324	-0.144961	-0.723997	-0.631155	0.237609
04926	-5.204052	-0.693922	-8.584783	0.170203	-0.031161	0.248736	-0.145192	-0.723880	-0.631254	0.237562
04927	-5.141169	-0.645381	-8.535435	0.213499	-0.007869	0.170105	-0.145377	-0.723778	-0.631357	0.237485
04928	-5.057654	-0.646228	-8.448517	0.203739	0.020508	0.053061	-0.145513	-0.723702	-0.631477	0.237314
04929	-5.016340	-0.714532	-8.382612	0.127040	0.031798	-0.018544	-0.145549	-0.723634	-0.631636	0.237076
04930	-5.097225	-0.765094	-8.277138	0.050238	-0.084902	-0.062387	-0.145589	-0.723584	-0.631784	0.236810
04931	-5.093468	-0.762309	-8.279708	0.050385	-0.084830	-0.062387	-0.145569	-0.723539	-0.631954	0.236506
04932	-5.174446	-0.824910	-8.302456	-0.019220	-0.137412	0.003977	-0.145575	-0.723533	-0.632090	0.236156
04933	-5.210963	-0.819829	-8.305552	-0.021431	-0.173027	0.024895	-0.145554	-0.723517	-0.632249	0.235792
04934	-5.248676	-0.842668	-8.299099	-0.052670	-0.209742	0.040584	-0.145569	-0.723494	-0.632390	0.235475
04935	-5.262261	-0.735678	-8.270629	0.043509	-0.255505	0.014252	-0.145624	-0.723465	-0.632491	0.235258
04936	-5.237057	-0.658251	-8.231884	0.113020	-0.266681	-0.038227	-0.145730	-0.723420	-0.632572	0.235114
04937	-5.215161	-0.623207	-8.133704	0.132349	-0.301234	-0.136161	-0.145936	-0.723346	-0.632615	0.235098
04938	-5.136660	-0.679251	-8.114144	0.079385	-0.232050	-0.188456	-0.146152	-0.723279	-0.632624	0.235147
04939	-5.058339	-0.721195	-8.143016	0.048243	-0.140784	-0.200535	-0.146340	-0.723223	-0.632623	0.235203
04940	-5.059020	-0.678422	-8.111794	0.084173	-0.160469	-0.230292	-0.146510	-0.723162	-0.632647	0.235220
04941	-5.103176	-0.703470	-8.101094	0.053156	-0.197246	-0.214601	-0.146627	-0.723074	-0.632706	0.235261
04942	-5.170474	-0.818294	-8.082206	-0.069265	-0.244787	-0.186642	-0.146700	-0.723012	-0.632760	0.235261
04943	-5.110065	-0.882369	-8.083990	-0.126790	-0.183022	-0.210986	-0.146653	-0.722986	-0.632829	0.235185
04944	-5.064814	-0.856542	-8.095436	-0.095699	-0.146030	-0.226676	-0.146478	-0.722992	-0.632924	0.235019
04945	-5.036466	-0.781728	-8.146402	-0.011567	-0.114132	-0.203952	-0.146183	-0.723052	-0.633009	0.234788
04946	-5.028016	-0.742608	-8.120525	0.024369	-0.133813	-0.233709	-0.145819	-0.723134	-0.633090	0.234544
04947	-5.102943	-0.727254	-8.173249	0.041402	-0.182954	-0.151646	-0.145428	-0.723250	-0.633149	0.234269
04948	-5.136201	-0.698339	-8.274863	0.082184	-0.174177	-0.050285	-0.145088	-0.723398	-0.633150	0.234020
04949	-5.211070	-0.655915	-8.248545	0.113619	-0.265299	-0.038196	-0.144796	-0.723506	-0.633159	0.233843
04950	-5.312884	-0.716094	-8.251480	0.046454	-0.346182	0.021155	-0.144638	-0.723556	-0.633144	0.233828
04951	-5.274290	-0.816308	-8.262922	-0.044649	-0.292925	0.019534	-0.144556	-0.723552	-0.633112	0.233978
04952	-5.195645	-0.875089	-8.418694	-0.068799	-0.137430	0.117634	-0.144541	-0.723528	-0.633054	0.234219
04953	-5.175585	-0.801200	-8.552297	0.029743	-0.062377	0.215554	-0.144514	-0.723504	-0.632992	0.234474
04954	-5.071642	-0.718417	-8.559296	0.125578	0.019985	0.161432	-0.144449	-0.723517	-0.632904	0.234714
04955	-5.005719	-0.565209	-8.546407	0.284077	0.047910	0.103701	-0.144354	-0.723576	-0.632792	0.234890
04956	-4.985913	-0.589639	-8.517117	0.259986	0.054249	0.070518	-0.144208	-0.723676	-0.632680	0.234974
04957	-4.963668	-0.584726	-8.586199	0.279317	0.104819	0.117756	-0.144016	-0.723806	-0.632578	0.234967
04958	-5.021960	-0.563870	-8.528764	0.286513	0.019964	0.096670	-0.143827	-0.723945	-0.632494	0.234881
04959	-5.040919	-0.612737	-8.492142	0.231477	-0.010630	0.079182	-0.143650	-0.724051	-0.632446	0.234790
04960	-5.061111	-0.674832	-8.494374	0.169023	-0.020144	0.096685	-0.143534	-0.724119	-0.632415	0.234735
04961	-4.999626	-0.725571	-8.544542	0.133106	0.063779	0.112540	-0.143488	-0.724130	-0.632402	0.234763
04962	-5.062680	-0.743377	-8.691065	0.133110	0.085071	0.271607	-0.143450	-0.724135	-0.632387	0.234813
04963	-5.124193	-0.721188	-8.719844	0.154933	0.043290	0.325718	-0.143417	-0.724126	-0.632389	0.234856
04964	-5.205977	-0.691643	-8.729058	0.178952	-0.026745	0.372807	-0.143363	-0.724136	-0.632374	0.234898
04965	-5.245626	-0.650212	-8.699262	0.212751	-0.082183	0.363977	-0.143310	-0.724154	-0.632353	0.234933
04966	-5.223064	-0.617466	-8.689466	0.246256	-0.073519	0.341250	-0.143242	-0.724183	-0.632336	0.234930
04967	-5.138750	-0.607634	-8.650953	0.258316	-0.023086	0.264400	-0.143188	-0.724217	-0.632315	0.234914
04968	-5.074982	-0.590822	-8.504779	0.258161	-0.044076	0.105336	-0.143169	-0.724262	-0.632271	0.234905
04969	-5.014589	-0.640561	-8.554317	0.222243	0.039849	0.121183	-0.143184	-0.724292	-0.632231	0.234913
04970	-4.997140	-0.717069	-8.506045	0.140532	0.043845	0.077547	-0.143247	-0.724310	-0.632188	0.234933
04971	-4.977064	-0.710285	-8.486021	0.145456	0.051256	0.049586	-0.143299	-0.724340	-0.632133	0.234958
04972	-4.958713	-0.744715	-8.495628	0.114155	0.078581	0.051385	-0.143366	-0.724350	-0.632090	0.235000
04973	-5.004083	-0.811408	-8.515026	0.047145	0.061647	0.096847	-0.143442	-0.724339	-0.632066	0.235055
04974	-5.089361	-0.835699	-8.504513	0.013556	-0.010721	0.133490	-0.143505	-0.724328	-0.632042	0.235113
04975	-5.068556	-0.800948	-8.581747	0.061695	0.041025	0.185946	-0.143526	-0.724336	-0.632018	0.235142
04976	-5.128344	-0.736222	-8.580978	0.119293	-0.020508	0.210310	-0.143526	-0.724351	-0.632016	0.235101
04977	-5.123747	-0.639248	-8.570835	0.213051	-0.037939	0.191002	-0.143482	-0.724393	-0.631999	0.235041
04978	-5.124180	-0.680298	-8.513347	0.162563	-0.061124	0.145572	-0.143514	-0.724441	-0.631961	0.234976
04979	-5.060124	-0.646856	-8.503853	0.198645	-0.016873	0.101900	-0.143518	-0.724487	-0.631929	0.234920
04980	-5.039850	-0.667487	-8.475088	0.174539	-0.010554	0.068718	-0.143561	-0.724530	-0.631876	0.234901
04981	-4.980571	-0.730630	-8.475706	0.117013	0.051200	0.044350	-0.143631	-0.724564	-0.631820	0.234905
04982	-4.940925	-0.744227	-8.514450	0.112093	0.108028	0.058393	-0.143723	-0.724601	-0.631744	0.234940
04983	-4.940819	-0.701876	-8.483930	0.148241	0.088262	0.028635	-0.143808	-0.724646	-0.631657	0.234982
04984	-4.917433	-0.584544	-8.413348	0.253740	0.057230	-0.053610	-0.143954	-0.724676	-0.631570	0.235033
04985	-4.942158	-0.630839	-8.373539	0.198701	0.026628	-0.071083	-0.144076	-0.724709	-0.631479	0.235103
04986	-4.903294	-0.645320	-8.323846	0.179368	0.040271	-0.132226	-0.144191	-0.724756	-0.631378	0.235159
04987	-4.947644	-0.655638	-8.361672	0.169966	0.025675	-0.076309	-0.144333	-0.724762	-0.631310	0.235237
04988	-5.032683	-0.652138	-8.272068	0.150769	-0.088712	-0.109611	-0.144471	-0.724748	-0.631266	0.235311
04989	-5.038702	-0.734504	-8.241991	0.064504	-0.092141	-0.125284	-0.144620	-0.724688	-0.631249	0.235449
04990	-5.024509	-0.810495	-8.279946	-0.002799	-0.044986	-0.093733	-0.144767	-0.724628	-0.631230	0.235595
04991	-4.985887	-0.798205	-8.326900	0.021309	0.012934	-0.074471	-0.144837	-0.724565	-0.631227	0.235755
04992	-4.986919	-0.757487	-8.383494	0.071644	0.036418	-0.029045	-0.144853	-0.724530	-0.631209	0.235899
04993	-4.965141	-0.683638	-8.430483	0.155782	0.068333	-0.006358	-0.144819	-0.724515	-0.631185	0.236031
04994	-4.882163	-0.661213	-8.439749	0.189212	0.140986	-0.043019	-0.144746	-0.724524	-0.631153	0.236134
04995	-4.923166	-0.661943	-8.439570	0.187008	0.105385	-0.022080	-0.144593	-0.724565	-0.631124	0.236181
04996	-4.961346	-0.621852	-8.410294	0.220575	0.050010	-0.030891	-0.144412	-0.724616	-0.631094	0.236214
04997	-5.000372	-0.609511	-8.371667	0.225565	-0.006600	-0.044929	-0.144249	-0.724638	-0.631094	0.236245
04998	-4.980229	-0.661261	-8.333678	0.172651	-0.001468	-0.083334	-0.144152	-0.724634	-0.631106	0.236286
04999	-4.963837	-0.767238	-8.363776	0.076770	0.044452	-0.057011	-0.144127	-0.724579	-0.631132	0.236400
05000	-4.926253	-0.810919	-8.480402	0.057459	0.143294	0.026974	-0.144164	-0.724510	-0.631145	0.236552
05001	-4.903491	-0.681673	-8.546007	0.199206	0.177547	0.060100	-0.144218	-0.724421	-0.631168	0.236733
05002	-4.904474	-0.627315	-8.651349	0.271149	0.223211	0.145721	-0.144242	-0.724336	-0.631206	0.236878
05003	-4.947520	-0.613631	-8.698578	0.290558	0.209794	0.206859	-0.144225	-0.724271	-0.631229	0.237025
05004	-5.010591	-0.591586	-8.814447	0.326569	0.211292	0.336163	-0.144194	-0.724214	-0.631275	0.237095
05005	-5.117148	-0.679281	-8.804841	0.230836	0.129194	0.390345	-0.144108	-0.724171	-0.631339	0.237110
05006	-5.218973	-0.670421	-8.785260	0.228466	0.029646	0.425226	-0.144008	-0.724139	-0.631407	0.237087
05007	-5.176964	-0.729548	-8.679667	0.158945	0.019857	0.318658	-0.143894	-0.724104	-0.631498	0.237019
05008	-5.155751	-0.794198	-8.593734	0.084410	0.002796	0.240056	-0.143817	-0.724051	-0.631608	0.236935
05009	-5.051027	-0.819879	-8.566176	0.065230	0.080365	0.164975	-0.143754	-0.723981	-0.631716	0.236900
05010	-5.006674	-0.767129	-8.585956	0.125102	0.118499	0.154470	-0.143719	-0.723902	-0.631816	0.236896
05011	-4.961382	-0.673232	-8.575682	0.221207	0.136731	0.114208	-0.143709	-0.723796	-0.631932	0.236914
05012	-4.939227	-0.613147	-8.574712	0.283499	0.146520	0.096690	-0.143754	-0.723653	-0.632052	0.237006
05013	-5.003041	-0.605976	-8.553464	0.283719	0.082582	0.110622	-0.143805	-0.723499	-0.632158	0.237161
05014	-5.048850	-0.660843	-8.620710	0.238090	0.087901	0.196300	-0.143854	-0.723366	-0.632264	0.237255
05015	-5.156159	-0.733806	-8.659183	0.163968	0.027993	0.290690	-0.143872	-0.723265	-0.632371	0.237267
05016	-5.218973	-0.751991	-8.717775	0.149562	0.006141	0.374578	-0.143891	-0.723181	-0.632489	0.237198
05017	-5.239552	-0.799339	-8.680018	0.094528	-0.024464	0.357122	-0.143880	-0.723116	-0.632618	0.237058
05018	-5.194989	-0.786292	-8.642652	0.103977	-0.009691	0.301199	-0.143854	-0.723083	-0.632725	0.236890
05019	-5.188366	-0.661019	-8.643017	0.226538	-0.025958	0.287107	-0.143837	-0.723049	-0.632817	0.236759
05020	-5.206265	-0.624804	-8.633851	0.257670	-0.053008	0.285320	-0.143870	-0.723010	-0.632891	0.236659
05021	-5.226774	-0.629722	-8.653736	0.253052	-0.060257	0.313279	-0.143925	-0.722961	-0.632947	0.236622
05022	-5.204644	-0.581302	-8.604364	0.293724	-0.072659	0.255568	-0.144038	-0.722913	-0.632988	0.236591
05023	-5.165374	-0.637074	-8.497377	0.224195	-0.082466	0.149005	-0.144174	-0.722856	-0.633041	0.236542
05024	-5.086524	-0.734180	-8.508364	0.135193	0.006500	0.126411	-0.144306	-0.722785	-0.633115	0.236479
05025	-4.943107	-0.786694	-8.382589	0.075131	0.075343	-0.050020	-0.144430	-0.722704	-0.633200	0.236423
05026	-4.902474	-0.799642	-8.422130	0.070194	0.132148	-0.036003	-0.144515	-0.722634	-0.633293	0.236337
05027	-4.982690	-0.738736	-8.529386	0.137673	0.106441	0.091508	-0.144519	-0.722608	-0.633387	0.236165
05028	-5.082529	-0.697553	-8.608473	0.178527	0.051270	0.206793	-0.144519	-0.722627	-0.633459	0.235912
05029	-5.223353	-0.683441	-8.590647	0.174052	-0.083993	0.262647	-0.144478	-0.722653	-0.633536	0.235651
05030	-5.363392	-0.656094	-8.533828	0.176521	-0.240229	0.283539	-0.144455	-0.722688	-0.633599	0.235388
05031	-5.421859	-0.644806	-8.516280	0.176746	-0.304162	0.297486	-0.144459	-0.722690	-0.633673	0.235178
05032	-5.398235	-0.623137	-8.458984	0.188610	-0.317739	0.234557	-0.144531	-0.722657	-0.633750	0.235028
05033	-5.357627	-0.663549	-8.489536	0.155114	-0.262148	0.243351	-0.144615	-0.722592	-0.633829	0.234963
05034	-5.193181	-0.694838	-8.480683	0.135606	-0.120535	0.154308	-0.144752	-0.722524	-0.633898	0.234902
05035	-5.110874	-0.708624	-8.520443	0.133262	-0.028110	0.147362	-0.144830	-0.722473	-0.633982	0.234785
05036	-5.047569	-0.701993	-8.501744	0.140283	0.015001	0.098442	-0.144886	-0.722448	-0.634041	0.234667
05037	-5.003397	-0.646062	-8.521363	0.200389	0.053079	0.087920	-0.144924	-0.722426	-0.634096	0.234562
05038	-5.040826	-0.560999	-8.462214	0.269934	-0.022165	0.049379	-0.144965	-0.722432	-0.634126	0.234439
05039	-5.081601	-0.585284	-8.453776	0.238930	-0.058925	0.065116	-0.144990	-0.722462	-0.634141	0.234290
05040	-5.140184	-0.533043	-8.405329	0.274900	-0.142659	0.049323	-0.145039	-0.722501	-0.634154	0.234102
05041	-5.243966	-0.603225	-8.358917	0.186360	-0.245767	0.068579	-0.145080	-0.722548	-0.634165	0.233902
05042	-5.244814	-0.682743	-8.332357	0.099846	-0.249151	0.052926	-0.145199	-0.722587	-0.634170	0.233697
05043	-5.247398	-0.789802	-8.296057	-0.015223	-0.253762	0.032052	-0.145326	-0.722599	-0.634182	0.233548
05044	-5.146835	-0.864561	-8.336758	-0.077847	-0.135278	0.021668	-0.145539	-0.722596	-0.634166	0.233467
05045	-5.084905	-0.814295	-8.374436	-0.020164	-0.068857	0.018150	-0.145706	-0.722611	-0.634107	0.233477
05046	-5.123500	-0.656825	-8.468348	0.143030	-0.076330	0.105392	-0.145859	-0.722659	-0.634012	0.233491
05047	-5.123281	-0.598782	-8.486143	0.200788	-0.073913	0.115827	-0.145968	-0.722735	-0.633902	0.233486
05048	-5.083021	-0.597606	-8.485758	0.203039	-0.038118	0.094868	-0.146087	-0.722818	-0.633787	0.233466
05049	-5.063219	-0.603816	-8.417278	0.186341	-0.052928	0.026714	-0.146176	-0.722907	-0.633678	0.233432
05050	-5.045170	-0.678979	-8.369945	0.104599	-0.048994	-0.016903	-0.146230	-0.722991	-0.633593	0.233369
05051	-5.064243	-0.641949	-8.359906	0.135972	-0.076094	-0.018688	-0.146262	-0.723054	-0.633540	0.233296
05052	-5.086059	-0.686861	-8.410088	0.095113	-0.063418	0.039028	-0.146298	-0.723091	-0.633520	0.233212
05053	-5.085293	-0.672224	-8.371025	0.102450	-0.084374	0.004060	-0.146368	-0.723084	-0.633522	0.233184
05054	-5.085577	-0.641293	-8.467667	0.145584	-0.039836	0.084431	-0.146506	-0.723053	-0.633522	0.233196
05055	-5.024190	-0.607365	-8.456429	0.181652	0.004383	0.040716	-0.146666	-0.723017	-0.633514	0.233230
05056	-4.923752	-0.630341	-8.426585	0.162212	0.081977	-0.034397	-0.146853	-0.722965	-0.633513	0.233275
05057	-4.884143	-0.617119	-8.386144	0.171895	0.096677	-0.090331	-0.146988	-0.722936	-0.633496	0.233327
05058	-4.924965	-0.529353	-8.500541	0.270292	0.107902	0.021437	-0.147093	-0.722950	-0.633441	0.233365
05059	-4.988412	-0.532148	-8.519439	0.263325	0.065004	0.070364	-0.147169	-0.722984	-0.633397	0.233332
05060	-5.050329	-0.521422	-8.499568	0.263301	0.001132	0.084334	-0.147239	-0.723036	-0.633346	0.233265
05061	-5.055918	-0.671071	-8.492763	0.112237	0.016377	0.093210	-0.147340	-0.723089	-0.633276	0.233225
05062	-5.102752	-0.806336	-8.446240	-0.034233	-0.025012	0.088092	-0.147424	-0.723147	-0.633198	0.233206
05063	-5.122937	-0.769755	-8.435395	-0.002859	-0.052111	0.086311	-0.147483	-0.723177	-0.633147	0.233215
05064	-5.121362	-0.685301	-8.462365	0.083458	-0.048462	0.101963	-0.147591	-0.723171	-0.633110	0.233263
05065	-5.058777	-0.611522	-8.420718	0.155518	-0.024109	0.028496	-0.147737	-0.723124	-0.633090	0.233370
05066	-4.936504	-0.589312	-8.340783	0.176837	0.040922	-0.104337	-0.147902	-0.723063	-0.633072	0.233504
05067	-4.918471	-0.568723	-8.367845	0.203367	0.070513	-0.092126	-0.148007	-0.722998	-0.633068	0.233650
05068	-4.817725	-0.579136	-8.386691	0.205540	0.170299	-0.127068	-0.148089	-0.722955	-0.633070	0.233724
05069	-4.843349	-0.681650	-8.417287	0.107316	0.180577	-0.079791	-0.148075	-0.722932	-0.633085	0.233765
05070	-4.862763	-0.660108	-8.446406	0.131256	0.174565	-0.046609	-0.148011	-0.722948	-0.633105	0.233702
05071	-4.986646	-0.709518	-8.516665	0.081185	0.108570	0.081010	-0.147878	-0.723005	-0.633128	0.233549
05072	-5.023227	-0.678268	-8.616054	0.121974	0.117459	0.182340	-0.147710	-0.723081	-0.633158	0.233338
05073	-5.159618	-0.554948	-8.635162	0.232729	-0.013086	0.259120	-0.147592	-0.723131	-0.633193	0.233161
05074	-5.215328	-0.449204	-8.605107	0.326308	-0.094480	0.253787	-0.147573	-0.723152	-0.633200	0.233090
05075	-5.236189	-0.441515	-8.585083	0.328880	-0.122751	0.246787	-0.147674	-0.723099	-0.633207	0.233174
05076	-5.136427	-0.452926	-8.515101	0.316618	-0.066218	0.136701	-0.147918	-0.723009	-0.633182	0.233365
05077	-5.061946	-0.538387	-8.484670	0.235043	0.001644	0.079104	-0.148176	-0.722899	-0.633170	0.233573
05078	-5.005509	-0.561021	-8.453200	0.213246	0.043556	0.024949	-0.148403	-0.722788	-0.633189	0.233723
05079	-4.969438	-0.617220	-8.433075	0.158129	0.076936	-0.006460	-0.148551	-0.722691	-0.633241	0.233788
05080	-4.911815	-0.693496	-8.473279	0.093152	0.159751	0.004090	-0.148643	-0.722633	-0.633293	0.233765
05081	-4.913597	-0.763038	-8.406596	0.014071	0.135263	-0.046520	-0.148640	-0.722606	-0.633352	0.233690
05082	-4.909254	-0.679037	-8.435127	0.100385	0.138904	-0.030874	-0.148603	-0.722599	-0.633411	0.233578
05083	-4.945115	-0.595848	-8.375894	0.170171	0.063590	-0.069393	-0.148512	-0.722596	-0.633474	0.233472
05084	-5.024750	-0.550520	-8.434281	0.215803	0.015790	0.017951	-0.148467	-0.722566	-0.633544	0.233405
05085	-5.067499	-0.617942	-8.455703	0.148808	-0.001096	0.063454	-0.148446	-0.722510	-0.633626	0.233370
05086	-5.170059	-0.593146	-8.484163	0.168055	-0.078414	0.138592	-0.148486	-0.722426	-0.633719	0.233351
05087	-5.211476	-0.593599	-8.395760	0.151429	-0.157250	0.084432	-0.148557	-0.722306	-0.633833	0.233367
05088	-5.212162	-0.580575	-8.355563	0.158513	-0.178172	0.049475	-0.148688	-0.722154	-0.633961	0.233408
05089	-5.153710	-0.632081	-8.316548	0.108160	-0.137490	-0.009901	-0.148809	-0.721983	-0.634087	0.233516
05090	-5.013947	-0.697699	-8.405141	0.069490	0.038845	-0.001137	-0.148934	-0.721820	-0.634207	0.233614
05091	-4.974705	-0.697771	-8.492284	0.086413	0.117830	0.053016	-0.148969	-0.721696	-0.634326	0.233653
05092	-5.016503	-0.725364	-8.483015	0.055162	0.081125	0.068779	-0.148877	-0.721651	-0.634410	0.233622
05093	-5.156396	-0.647016	-8.442560	0.115496	-0.072797	0.100194	-0.148728	-0.721648	-0.634479	0.233539
05094	-5.235221	-0.617512	-8.453031	0.139511	-0.142804	0.147370	-0.148587	-0.721678	-0.634522	0.233418
05095	-5.293697	-0.611597	-8.346822	0.125306	-0.249992	0.086227	-0.148485	-0.721685	-0.634568	0.233338
05096	-5.290904	-0.571551	-8.317394	0.161196	-0.269739	0.056488	-0.148467	-0.721634	-0.634628	0.233343
05097	-5.252152	-0.644530	-8.250233	0.084459	-0.258585	-0.015093	-0.148522	-0.721500	-0.634728	0.233451
05098	-5.172947	-0.661329	-8.288143	0.081859	-0.166114	-0.022092	-0.148686	-0.721327	-0.634817	0.233638
05099	-5.118397	-0.750567	-8.454105	0.024379	-0.019034	0.098532	-0.148798	-0.721155	-0.634922	0.233811
05100	-5.100723	-0.729115	-8.569082	0.065095	0.053884	0.185864	-0.148905	-0.720993	-0.635041	0.233921
05101	-5.144241	-0.726842	-8.655658	0.077334	0.061578	0.281972	-0.148922	-0.720883	-0.635147	0.233961
05102	-5.182094	-0.615273	-8.692124	0.190110	0.030758	0.323811	-0.148857	-0.720851	-0.635213	0.233924
05103	-5.219072	-0.531499	-8.720458	0.274335	-0.001289	0.360431	-0.148727	-0.720858	-0.635266	0.233841
05104	-5.274120	-0.414507	-8.650888	0.375098	-0.103727	0.320159	-0.148596	-0.720900	-0.635294	0.233716
05105	-5.270225	-0.416506	-8.565083	0.360815	-0.146922	0.245027	-0.148480	-0.720952	-0.635316	0.233571
05106	-5.248078	-0.480742	-8.480502	0.286245	-0.164068	0.166465	-0.148418	-0.721002	-0.635315	0.233460
05107	-5.247376	-0.522989	-8.423897	0.235970	-0.187393	0.121080	-0.148396	-0.721003	-0.635338	0.233408
05108	-5.163888	-0.526747	-8.336693	0.226117	-0.159242	0.003991	-0.148476	-0.720981	-0.635350	0.233391
05109	-5.102950	-0.551095	-8.219705	0.190131	-0.160671	-0.125304	-0.148584	-0.720913	-0.635385	0.233438
05110	-5.005288	-0.684319	-8.241781	0.069885	-0.044553	-0.146184	-0.148693	-0.720855	-0.635404	0.233494
05111	-5.009138	-0.735321	-8.398519	0.041289	0.039721	-0.006363	-0.148756	-0.720831	-0.635415	0.233502
05112	-5.027703	-0.642205	-8.494008	0.144456	0.058305	0.077416	-0.148755	-0.720821	-0.635442	0.233457
05113	-5.148261	-0.554500	-8.521447	0.223993	-0.045033	0.156010	-0.148710	-0.720836	-0.635474	0.233354
05114	-5.227007	-0.495925	-8.540755	0.276812	-0.113844	0.208413	-0.148606	-0.720890	-0.635485	0.233223
05115	-5.222737	-0.467831	-8.552029	0.305768	-0.112592	0.213622	-0.148468	-0.720956	-0.635503	0.233058
05116	-5.241558	-0.528331	-8.555708	0.243284	-0.122110	0.231171	-0.148390	-0.721044	-0.635493	0.232861
05117	-5.216681	-0.508207	-8.498859	0.255383	-0.135790	0.168244	-0.148317	-0.721108	-0.635494	0.232707
05118	-5.195947	-0.584548	-8.453309	0.173622	-0.131889	0.124639	-0.148320	-0.721156	-0.635476	0.232607
05119	-5.133673	-0.606581	-8.425284	0.152071	-0.090049	0.070465	-0.148352	-0.721177	-0.635453	0.232582
05120	-5.014855	-0.776402	-8.370874	-0.013843	0.009961	-0.023775	-0.148428	-0.721188	-0.635415	0.232606
05121	-5.017694	-0.831837	-8.351932	-0.071307	0.007681	-0.034199	-0.148444	-0.721210	-0.635354	0.232694
05122	-5.038420	-0.782324	-8.388912	-0.018565	0.002870	0.004196	-0.148474	-0.721245	-0.635276	0.232777
05123	-5.079670	-0.741107	-8.357642	0.015230	-0.052579	-0.004554	-0.148450	-0.721260	-0.635225	0.232886
05124	-5.120483	-0.699593	-8.326655	0.048775	-0.107971	-0.013303	-0.148468	-0.721313	-0.635150	0.232914
05125	-5.140985	-0.689891	-8.394954	0.065780	-0.092960	0.054833	-0.148433	-0.721394	-0.635085	0.232861
05126	-5.098028	-0.688378	-8.484240	0.082455	-0.013895	0.108960	-0.148342	-0.721505	-0.635026	0.232739
05127	-5.093350	-0.644994	-8.544068	0.133031	0.009589	0.154335	-0.148165	-0.721650	-0.634968	0.232560
05128	-5.107336	-0.581571	-8.545445	0.192961	-0.016273	0.157780	-0.147984	-0.721813	-0.634903	0.232347
05129	-5.268306	-0.560638	-8.596066	0.205366	-0.136538	0.281910	-0.147837	-0.721952	-0.634833	0.232202
05130	-5.225670	-0.603808	-8.540104	0.157176	-0.124171	0.215546	-0.147817	-0.722051	-0.634749	0.232134
05131	-5.207229	-0.680728	-8.493193	0.075672	-0.120335	0.171938	-0.147838	-0.722105	-0.634663	0.232187
05132	-5.105093	-0.692914	-8.424480	0.063394	-0.063857	0.061818	-0.147857	-0.722113	-0.634607	0.232303
05133	-5.064638	-0.667662	-8.432543	0.094689	-0.026963	0.046036	-0.147872	-0.722095	-0.634570	0.232449
05134	-5.002203	-0.609073	-8.430224	0.159303	0.018460	0.007494	-0.147873	-0.722070	-0.634556	0.232566
05135	-4.898873	-0.590895	-8.546827	0.204954	0.162642	0.052804	-0.147788	-0.722062	-0.634564	0.232623
05136	-4.894902	-0.509061	-8.574960	0.291269	0.166307	0.068438	-0.147652	-0.722108	-0.634561	0.232577
05137	-4.954940	-0.542363	-8.587073	0.255508	0.122270	0.112189	-0.147456	-0.722193	-0.634558	0.232445
05138	-5.013198	-0.560197	-8.648599	0.241117	0.100527	0.196108	-0.147251	-0.722317	-0.634536	0.232248
05139	-5.133545	-0.583690	-8.641995	0.205439	-0.007500	0.253881	-0.147092	-0.722423	-0.634519	0.232065
05140	-5.170698	-0.566929	-8.692768	0.224614	-0.020771	0.315040	-0.146985	-0.722511	-0.634496	0.231924
05141	-5.207638	-0.511259	-8.624781	0.265597	-0.097280	0.271346	-0.146927	-0.722562	-0.634482	0.231837
05142	-5.166136	-0.539650	-8.616311	0.239025	-0.062686	0.245142	-0.146965	-0.722576	-0.634470	0.231802
05143	-5.084854	-0.569230	-8.606920	0.215051	0.007492	0.197933	-0.147050	-0.722562	-0.634456	0.231831
05144	-4.963614	-0.628233	-8.588105	0.164354	0.112187	0.124520	-0.147110	-0.722565	-0.634430	0.231857
05145	-4.901352	-0.607760	-8.616795	0.193227	0.177431	0.115704	-0.147178	-0.722590	-0.634402	0.231809
05146	-4.839718	-0.657449	-8.579623	0.142611	0.218129	0.056311	-0.147131	-0.722666	-0.634375	0.231676
05147	-4.855513	-0.593232	-8.579931	0.202792	0.192209	0.059753	-0.147056	-0.722762	-0.634346	0.231503
05148	-4.894558	-0.632868	-8.524524	0.149916	0.133272	0.035383	-0.146952	-0.722874	-0.634327	0.231273
05149	-4.992570	-0.593284	-8.516642	0.176611	0.034894	0.075615	-0.146843	-0.722984	-0.634310	0.231044
05150	-5.092526	-0.596157	-8.450959	0.152622	-0.086856	0.070485	-0.146786	-0.723088	-0.634281	0.230836
05151	-5.131105	-0.592583	-8.452860	0.150431	-0.122421	0.091484	-0.146775	-0.723152	-0.634267	0.230682
05152	-5.090614	-0.660687	-8.474904	0.087868	-0.067953	0.095013	-0.146819	-0.723171	-0.634265	0.230600
05153	-5.005682	-0.619182	-8.532886	0.143125	0.026821	0.098376	-0.146863	-0.723186	-0.634263	0.230530
05154	-5.003518	-0.574931	-8.590969	0.193446	0.050368	0.143745	-0.146897	-0.723193	-0.634275	0.230453
05155	-4.981387	-0.552815	-8.620219	0.219980	0.079974	0.155923	-0.146939	-0.723198	-0.634286	0.230381
05156	-5.044218	-0.585732	-8.543479	0.169525	-0.007318	0.124589	-0.146956	-0.723192	-0.634312	0.230315
05157	-5.042768	-0.559053	-8.465192	0.184039	-0.049377	0.054694	-0.146974	-0.723190	-0.634330	0.230261
05158	-5.043141	-0.573004	-8.416904	0.162308	-0.071502	0.014541	-0.147035	-0.723168	-0.634354	0.230225
05159	-5.042840	-0.546193	-8.337937	0.176820	-0.113563	-0.055352	-0.147117	-0.723128	-0.634382	0.230222
05160	-4.963281	-0.606085	-8.231126	0.109340	-0.087842	-0.182876	-0.147207	-0.723070	-0.634414	0.230258
05161	-4.862444	-0.630781	-8.201080	0.090118	-0.010392	-0.258069	-0.147329	-0.722976	-0.634459	0.230351
05162	-4.823035	-0.630515	-8.287599	0.106795	0.068680	-0.203973	-0.147383	-0.722905	-0.634487	0.230460
05163	-4.886500	-0.646403	-8.434012	0.107098	0.090217	-0.044951	-0.147362	-0.722872	-0.634524	0.230477
05164	-4.969529	-0.684680	-8.465004	0.066326	0.038954	0.026794	-0.147276	-0.722910	-0.634531	0.230393
05165	-5.028111	-0.674291	-8.535086	0.080998	0.018357	0.115926	-0.147092	-0.723005	-0.634519	0.230248
05166	-5.103897	-0.600932	-8.604562	0.155449	-0.028185	0.208511	-0.146901	-0.723138	-0.634480	0.230057
05167	-5.095187	-0.476442	-8.604251	0.278004	-0.044460	0.194400	-0.146750	-0.723253	-0.634442	0.229898
05168	-5.133213	-0.461395	-8.566826	0.282740	-0.101044	0.180466	-0.146697	-0.723342	-0.634391	0.229793
05169	-5.070864	-0.473340	-8.411284	0.253922	-0.123624	0.016232	-0.146697	-0.723409	-0.634313	0.229795
05170	-4.970707	-0.551354	-8.451374	0.191276	-0.005171	0.005715	-0.146774	-0.723434	-0.634244	0.229860
05171	-4.995932	-0.612258	-8.451553	0.129051	-0.014739	0.023271	-0.146892	-0.723409	-0.634199	0.229986
05172	-4.957720	-0.614193	-8.449541	0.131282	0.021016	0.002264	-0.146984	-0.723342	-0.634186	0.230174
05173	-4.897994	-0.596401	-8.476261	0.160152	0.086257	-0.006570	-0.147038	-0.723285	-0.634172	0.230357
05174	-4.897754	-0.540213	-8.581132	0.232100	0.132061	0.078942	-0.147027	-0.723254	-0.634177	0.230447
05175	-4.915336	-0.463614	-8.628341	0.313906	0.128395	0.122539	-0.146934	-0.723271	-0.634193	0.230412
05176	-4.973724	-0.427369	-8.619329	0.342685	0.065706	0.141792	-0.146828	-0.723325	-0.634211	0.230258
05177	-4.972450	-0.484485	-8.515293	0.270779	0.020093	0.056277	-0.146710	-0.723402	-0.634211	0.230093
05178	-4.989848	-0.489404	-8.537111	0.265908	0.012930	0.084256	-0.146620	-0.723469	-0.634215	0.229927
05179	-5.071359	-0.515220	-8.441989	0.218130	-0.102771	0.045973	-0.146597	-0.723504	-0.634224	0.229806
05180	-5.112671	-0.540473	-8.433738	0.186874	-0.139468	0.061779	-0.146626	-0.723512	-0.634223	0.229766
05181	-5.136795	-0.616182	-8.386481	0.103025	-0.171290	0.039188	-0.146695	-0.723480	-0.634226	0.229816
05182	-5.119773	-0.663670	-8.435086	0.064504	-0.122922	0.075889	-0.146832	-0.723437	-0.634202	0.229927
05183	-5.081493	-0.652156	-8.393499	0.074171	-0.108292	0.019936	-0.146975	-0.723373	-0.634175	0.230113
05184	-5.044024	-0.653791	-8.391022	0.076400	-0.072538	-0.001074	-0.147119	-0.723337	-0.634119	0.230288
05185	-4.987633	-0.718665	-8.390221	0.018851	-0.010841	-0.025538	-0.147193	-0.723298	-0.634080	0.230471
05186	-4.944350	-0.597034	-8.385683	0.143487	0.008557	-0.060659	-0.147215	-0.723303	-0.634022	0.230599
05187	-4.902209	-0.543943	-8.403066	0.203583	0.046624	-0.071259	-0.147180	-0.723337	-0.633961	0.230684
05188	-4.901320	-0.517293	-8.412055	0.232281	0.047924	-0.066050	-0.147101	-0.723399	-0.633893	0.230725
05189	-4.942092	-0.514896	-8.500173	0.244534	0.055702	0.030048	-0.147022	-0.723475	-0.633813	0.230760
05190	-4.942573	-0.530897	-8.451666	0.222799	0.033561	-0.010098	-0.146968	-0.723527	-0.633739	0.230833
05191	-5.028401	-0.597730	-8.472410	0.153478	-0.018912	0.056453	-0.146939	-0.723551	-0.633683	0.230930
05192	-5.113098	-0.636827	-8.502345	0.112707	-0.070159	0.128216	-0.146880	-0.723573	-0.633650	0.230989
05193	-5.154113	-0.623910	-8.462901	0.117699	-0.126794	0.114291	-0.146823	-0.723557	-0.633659	0.231050
05194	-5.155168	-0.651422	-8.541363	0.103227	-0.084517	0.184172	-0.146788	-0.723523	-0.633681	0.231118
05195	-5.092055	-0.619163	-8.618305	0.153725	0.002985	0.215469	-0.146743	-0.723487	-0.633706	0.231193
05196	-4.987230	-0.577330	-8.568029	0.199034	0.061742	0.115729	-0.146702	-0.723457	-0.633726	0.231259
05197	-4.925595	-0.587654	-8.587382	0.199098	0.125800	0.101670	-0.146647	-0.723453	-0.633716	0.231331
05198	-4.822864	-0.614423	-8.558313	0.179616	0.203269	0.026452	-0.146558	-0.723485	-0.633677	0.231396
05199	-4.801018	-0.595781	-8.587209	0.206148	0.232879	0.038615	-0.146455	-0.723516	-0.633643	0.231457
05200	-4.884637	-0.635479	-8.617663	0.165376	0.181633	0.110381	-0.146352	-0.723556	-0.633607	0.231496
05201	-4.965231	-0.593202	-8.587963	0.196837	0.090551	0.122682	-0.146276	-0.723564	-0.633611	0.231508
05202	-5.088539	-0.575335	-8.636744	0.211340	0.006042	0.225882	-0.146237	-0.723532	-0.633636	0.231564
05203	-5.129515	-0.547456	-8.645567	0.237961	-0.028329	0.252104	-0.146239	-0.723473	-0.633674	0.231641
05204	-5.149018	-0.511815	-8.722828	0.283521	-0.012041	0.325436	-0.146203	-0.723409	-0.633758	0.231636
05205	-5.127590	-0.532912	-8.782542	0.274072	0.037472	0.367327	-0.146132	-0.723354	-0.633866	0.231557
05206	-5.084536	-0.562523	-8.774792	0.247485	0.072032	0.341104	-0.146047	-0.723303	-0.633999	0.231408
05207	-5.061364	-0.597655	-8.787324	0.216409	0.099280	0.342852	-0.145929	-0.723256	-0.634146	0.231225
05208	-5.057585	-0.612316	-8.741340	0.194667	0.077127	0.302710	-0.145806	-0.723233	-0.634283	0.230998
05209	-5.074539	-0.634411	-8.627522	0.153987	0.004314	0.215464	-0.145653	-0.723241	-0.634391	0.230772
05210	-5.110831	-0.619938	-8.591158	0.158715	-0.052286	0.201551	-0.145509	-0.723228	-0.634514	0.230565
05211	-5.211361	-0.637587	-8.564999	0.127809	-0.153003	0.231429	-0.145441	-0.723191	-0.634629	0.230408
05212	-5.228798	-0.602271	-8.555922	0.158921	-0.180061	0.229681	-0.145437	-0.723130	-0.634729	0.230327
05213	-5.185309	-0.547914	-8.574185	0.219021	-0.141994	0.219070	-0.145512	-0.723013	-0.634838	0.230346
05214	-5.144299	-0.508126	-8.542871	0.257227	-0.126155	0.168323	-0.145667	-0.722882	-0.634935	0.230389
05215	-5.083861	-0.489987	-8.482390	0.271649	-0.104271	0.084383	-0.145799	-0.722769	-0.635020	0.230426
05216	-4.983130	-0.528517	-8.403949	0.230530	-0.049088	-0.030984	-0.145913	-0.722688	-0.635099	0.230392
05217	-4.942994	-0.584264	-8.385949	0.175399	-0.015756	-0.062422	-0.145901	-0.722664	-0.635177	0.230262
05218	-4.964166	-0.697997	-8.458900	0.069748	0.015711	0.019810	-0.145828	-0.722687	-0.635254	0.230022
05219	-5.042745	-0.719589	-8.540904	0.050866	-0.013292	0.131726	-0.145691	-0.722744	-0.635321	0.229745
05220	-5.199947	-0.629235	-8.572551	0.127826	-0.152127	0.231442	-0.145539	-0.722827	-0.635368	0.229449
05221	-5.358783	-0.581801	-8.546779	0.154621	-0.314454	0.285812	-0.145373	-0.722914	-0.635401	0.229189
05222	-5.393445	-0.497809	-8.489416	0.224141	-0.389768	0.247386	-0.145290	-0.722987	-0.635402	0.229007
05223	-5.289321	-0.549456	-8.452429	0.176107	-0.313544	0.166945	-0.145257	-0.723007	-0.635415	0.228930
05224	-5.143853	-0.534190	-8.392637	0.194933	-0.220372	0.040961	-0.145339	-0.722960	-0.635448	0.228933
05225	-5.023272	-0.606032	-8.412092	0.137294	-0.094705	0.002404	-0.145465	-0.722900	-0.635464	0.229000
05226	-4.942349	-0.608036	-8.410497	0.141851	-0.023337	-0.039647	-0.145562	-0.722856	-0.635477	0.229041
05227	-4.881220	-0.628392	-8.468838	0.134731	0.061806	-0.018790	-0.145612	-0.722857	-0.635482	0.228993
05228	-4.899673	-0.605039	-8.498647	0.158667	0.055842	0.014396	-0.145559	-0.722917	-0.635479	0.228845
05229	-5.021440	-0.627789	-8.492425	0.123002	-0.052138	0.072271	-0.145422	-0.723006	-0.635480	0.228651
05230	-5.100902	-0.664924	-8.526011	0.082231	-0.103355	0.144056	-0.145265	-0.723125	-0.635457	0.228435
05231	-5.216326	-0.548712	-8.566328	0.190602	-0.205411	0.227960	-0.145087	-0.723250	-0.635432	0.228222
05232	-5.212662	-0.562561	-8.520697	0.168859	-0.227564	0.187828	-0.144971	-0.723378	-0.635386	0.228017
05233	-5.147868	-0.559116	-8.414806	0.161651	-0.227970	0.063750	-0.144881	-0.723463	-0.635358	0.227885
05234	-5.044837	-0.610475	-8.377009	0.113351	-0.151706	-0.016695	-0.144932	-0.723524	-0.635296	0.227828
05235	-4.984049	-0.632552	-8.347567	0.091783	-0.109930	-0.070910	-0.145000	-0.723528	-0.635272	0.227840
05236	-4.923360	-0.640555	-8.365934	0.091585	-0.045830	-0.084987	-0.145077	-0.723510	-0.635246	0.227923
05237	-4.964661	-0.596403	-8.422775	0.139831	-0.057916	-0.018618	-0.145139	-0.723485	-0.635228	0.228012
05238	-5.026861	-0.560222	-8.412001	0.168613	-0.120586	0.000670	-0.145154	-0.723483	-0.635215	0.228045
05239	-5.026565	-0.573239	-8.451613	0.161582	-0.099419	0.035598	-0.145090	-0.723529	-0.635192	0.228005
05240	-5.085912	-0.549694	-8.482004	0.183186	-0.140992	0.089819	-0.144997	-0.723618	-0.635142	0.227920
05241	-5.081464	-0.468237	-8.422767	0.255304	-0.180737	0.030365	-0.144893	-0.723705	-0.635091	0.227852
05242	-5.038904	-0.484615	-8.375179	0.235897	-0.167269	-0.030796	-0.144794	-0.723812	-0.635016	0.227786
05243	-5.017785	-0.519350	-8.386486	0.204815	-0.140024	-0.029054	-0.144739	-0.723930	-0.634901	0.227764
05244	-4.959348	-0.651359	-8.408983	0.082209	-0.059566	-0.029023	-0.144729	-0.724066	-0.634756	0.227742
05245	-5.086074	-0.740325	-8.510067	-0.003794	-0.105434	0.128456	-0.144735	-0.724202	-0.634586	0.227781
05246	-5.104777	-0.661854	-8.556644	0.077757	-0.109008	0.172052	-0.144771	-0.724330	-0.634398	0.227873
05247	-5.143155	-0.507629	-8.561804	0.226784	-0.159723	0.184176	-0.144874	-0.724442	-0.634191	0.228029
05248	-5.043582	-0.478181	-8.459977	0.250452	-0.123287	0.044273	-0.145056	-0.724537	-0.633957	0.228261
05249	-4.966305	-0.467397	-8.416601	0.262445	-0.073073	-0.032728	-0.145267	-0.724624	-0.633706	0.228549
05250	-4.763427	-0.457688	-8.548058	0.310084	0.170812	-0.022709	-0.145432	-0.724729	-0.633453	0.228813
05251	-4.748504	-0.505637	-8.595399	0.271825	0.219156	0.013956	-0.145486	-0.724872	-0.633206	0.229007
05252	-4.773045	-0.539043	-8.604635	0.238148	0.210837	0.036734	-0.145521	-0.725030	-0.632977	0.229119
05253	-4.755327	-0.586698	-8.653583	0.199890	0.259181	0.073399	-0.145516	-0.725202	-0.632753	0.229195
05254	-4.780520	-0.688375	-8.684920	0.101422	0.269589	0.120696	-0.145485	-0.725382	-0.632539	0.229236
05255	-4.799888	-0.653057	-8.674588	0.132800	0.242490	0.118951	-0.145420	-0.725564	-0.632336	0.229262
05256	-4.861680	-0.656935	-8.694923	0.125595	0.199735	0.167969	-0.145354	-0.725743	-0.632141	0.229275
05257	-4.818228	-0.617635	-8.664832	0.164063	0.215512	0.117204	-0.145298	-0.725890	-0.631986	0.229274
05258	-4.794253	-0.569340	-8.703294	0.219139	0.246360	0.134555	-0.145209	-0.726032	-0.631850	0.229254
05259	-4.728360	-0.496590	-8.662786	0.291168	0.270579	0.061008	-0.145183	-0.726142	-0.631736	0.229235
05260	-4.642936	-0.444244	-8.680705	0.353335	0.344301	0.029337	-0.145171	-0.726204	-0.631656	0.229268
05261	-4.625187	-0.481415	-8.602666	0.307801	0.328157	-0.043985	-0.145206	-0.726212	-0.631607	0.229355
05262	-4.691304	-0.541093	-8.603576	0.242984	0.283021	-0.005369	-0.145248	-0.726218	-0.631566	0.229422
05263	-4.714043	-0.574572	-8.613811	0.209569	0.274650	0.017405	-0.145256	-0.726195	-0.631590	0.229423
05264	-4.775865	-0.591389	-8.673619	0.195186	0.252986	0.101353	-0.145236	-0.726152	-0.631672	0.229346
05265	-4.897296	-0.558481	-8.684525	0.217142	0.147399	0.169672	-0.145187	-0.726095	-0.631774	0.229278
05266	-4.938495	-0.584443	-8.676432	0.185884	0.110701	0.185511	-0.145203	-0.726011	-0.631900	0.229186
05267	-4.938365	-0.598815	-8.628553	0.164405	0.088485	0.145380	-0.145205	-0.725942	-0.632002	0.229122
05268	-4.874977	-0.607906	-8.648572	0.164198	0.152560	0.131281	-0.145154	-0.725890	-0.632104	0.229039
05269	-4.870092	-0.539973	-8.628816	0.229137	0.133903	0.106758	-0.145044	-0.725851	-0.632206	0.228952
05270	-4.928506	-0.490977	-8.580636	0.265092	0.050113	0.091138	-0.144987	-0.725791	-0.632311	0.228886
05271	-4.990580	-0.510507	-8.552876	0.236523	-0.014975	0.100033	-0.144959	-0.725723	-0.632399	0.228877
05272	-4.931544	-0.577643	-8.465897	0.164248	0.003328	0.000478	-0.144973	-0.725636	-0.632493	0.228885
05273	-4.973353	-0.564004	-8.426451	0.169239	-0.053319	-0.013405	-0.144997	-0.725509	-0.632605	0.228960
05274	-4.997969	-0.626615	-8.426969	0.106752	-0.062847	0.004176	-0.145066	-0.725349	-0.632740	0.229051
05275	-4.958369	-0.629542	-8.425496	0.109233	-0.027161	-0.016869	-0.145133	-0.725179	-0.632886	0.229144
05276	-4.855382	-0.626385	-8.492068	0.132991	0.094821	-0.011890	-0.145170	-0.725052	-0.633006	0.229192
05277	-4.851997	-0.556979	-8.558965	0.212383	0.119561	0.038636	-0.145114	-0.724970	-0.633125	0.229159
05278	-4.910076	-0.519456	-8.637899	0.255614	0.100275	0.132994	-0.144997	-0.724939	-0.633225	0.229055
05279	-5.006374	-0.413588	-8.609159	0.347117	-0.016782	0.148823	-0.144821	-0.724950	-0.633305	0.228908
05280	-5.190601	-0.456405	-8.575141	0.282474	-0.189869	0.215665	-0.144649	-0.724981	-0.633370	0.228739
05281	-5.252081	-0.518603	-8.491423	0.203470	-0.278437	0.179241	-0.144522	-0.724978	-0.633448	0.228615
05282	-5.251731	-0.587975	-8.514077	0.138560	-0.259600	0.203764	-0.144422	-0.724955	-0.633524	0.228540
05283	-5.168606	-0.593581	-8.426143	0.128920	-0.231705	0.086626	-0.144433	-0.724883	-0.633607	0.228530
05284	-5.110411	-0.699405	-8.456825	0.035116	-0.150082	0.091837	-0.144458	-0.724798	-0.633679	0.228583
05285	-4.985153	-0.649535	-8.473235	0.099875	-0.040798	0.039100	-0.144488	-0.724713	-0.633733	0.228683
05286	-4.922008	-0.590965	-8.470526	0.164456	0.004547	0.000474	-0.144493	-0.724663	-0.633762	0.228759
05287	-4.899851	-0.557019	-8.547287	0.212619	0.056465	0.052733	-0.144444	-0.724629	-0.633790	0.228823
05288	-4.981074	-0.514735	-8.517951	0.243821	-0.034575	0.065111	-0.144360	-0.724641	-0.633790	0.228838
05289	-4.999845	-0.495734	-8.460072	0.253567	-0.083972	0.023250	-0.144219	-0.724678	-0.633804	0.228769
05290	-5.057537	-0.447309	-8.412620	0.289520	-0.167763	0.007647	-0.144036	-0.724728	-0.633829	0.228657
05291	-5.053876	-0.474684	-8.493532	0.275316	-0.125468	0.077486	-0.143832	-0.724756	-0.633886	0.228538
05292	-5.134076	-0.513157	-8.526752	0.234549	-0.176658	0.149308	-0.143710	-0.724802	-0.633916	0.228385
05293	-5.113866	-0.616647	-8.559759	0.138680	-0.130676	0.175558	-0.143629	-0.724837	-0.633930	0.228285
05294	-5.112012	-0.616430	-8.560882	0.138558	-0.130567	0.175561	-0.143582	-0.724887	-0.633904	0.228229
05295	-5.150058	-0.585303	-8.659108	0.179639	-0.121502	0.276852	-0.143519	-0.724948	-0.633856	0.228210
05296	-5.145730	-0.475984	-8.608512	0.280290	-0.160051	0.222620	-0.143478	-0.725022	-0.633784	0.228200
05297	-5.104692	-0.492386	-8.559948	0.261141	-0.146668	0.161446	-0.143413	-0.725111	-0.633696	0.228202
05298	-5.024335	-0.565838	-8.492640	0.186436	-0.100016	0.068825	-0.143354	-0.725218	-0.633597	0.228173
05299	-4.937790	-0.500019	-8.471605	0.256037	-0.047460	0.002203	-0.143279	-0.725322	-0.633518	0.228110
05300	-4.959124	-0.534652	-8.395441	0.207899	-0.099203	-0.050048	-0.143232	-0.725423	-0.633439	0.228037
05301	-4.916200	-0.522672	-8.356533	0.217552	-0.084636	-0.106022	-0.143165	-0.725503	-0.633380	0.227987
05302	-4.917121	-0.603959	-8.417667	0.145468	-0.044676	-0.046583	-0.143116	-0.725574	-0.633334	0.227921
05303	-4.976476	-0.606147	-8.526913	0.152987	-0.044041	0.077491	-0.143036	-0.725637	-0.633301	0.227864
05304	-5.018185	-0.686446	-8.588865	0.078569	-0.039683	0.157981	-0.142925	-0.725694	-0.633288	0.227787
05305	-5.056735	-0.685544	-8.591009	0.076388	-0.075218	0.179034	-0.142752	-0.725778	-0.633264	0.227695
05306	-5.053136	-0.673654	-8.553724	0.083442	-0.096220	0.144118	-0.142539	-0.725876	-0.633236	0.227591
05307	-4.966673	-0.652080	-8.476041	0.102604	-0.067163	0.032173	-0.142335	-0.725984	-0.633189	0.227505
05308	-4.898606	-0.593735	-8.475942	0.167185	-0.021817	-0.006464	-0.142121	-0.726111	-0.633122	0.227421
05309	-4.790171	-0.564745	-8.466071	0.205554	0.057904	-0.071361	-0.141894	-0.726268	-0.633028	0.227327
05310	-4.826056	-0.549544	-8.517553	0.224738	0.044713	-0.010187	-0.141651	-0.726438	-0.632932	0.227201
05311	-4.861527	-0.560609	-8.647776	0.229836	0.073719	0.120816	-0.141408	-0.726599	-0.632838	0.227098
05312	-4.901909	-0.602611	-8.592601	0.176947	0.014727	0.096556	-0.141231	-0.726719	-0.632764	0.227032
05313	-4.876777	-0.543098	-8.592140	0.239463	0.024423	0.078968	-0.141084	-0.726782	-0.632702	0.227093
05314	-4.914779	-0.500978	-8.650962	0.287452	0.012426	0.145344	-0.140995	-0.726839	-0.632641	0.227138
05315	-4.808798	-0.485054	-8.678744	0.318647	0.113263	0.115356	-0.140893	-0.726888	-0.632621	0.227099
05316	-4.785068	-0.493249	-8.699631	0.316103	0.141735	0.122288	-0.140714	-0.726938	-0.632653	0.226958
05317	-4.781220	-0.534840	-8.732328	0.280270	0.161737	0.151998	-0.140486	-0.727002	-0.632710	0.226736
05318	-4.820624	-0.603647	-8.669239	0.198570	0.101549	0.122541	-0.140260	-0.727074	-0.632769	0.226482
05319	-4.836347	-0.650808	-8.722547	0.157985	0.114308	0.180240	-0.140026	-0.727131	-0.632829	0.226276
05320	-4.851908	-0.644295	-8.706156	0.160282	0.086054	0.173312	-0.139826	-0.727168	-0.632892	0.226104
05321	-4.933204	-0.684497	-8.652307	0.105332	-0.008583	0.170112	-0.139638	-0.727198	-0.632940	0.225991
05322	-4.968933	-0.628845	-8.673359	0.160494	-0.041700	0.201573	-0.139502	-0.727205	-0.632976	0.225949
05323	-4.902921	-0.557757	-8.632617	0.232516	-0.017521	0.128008	-0.139397	-0.727195	-0.633008	0.225956
05324	-4.837296	-0.499662	-8.630792	0.297090	0.027812	0.089365	-0.139326	-0.727171	-0.633052	0.225955
05325	-4.834733	-0.540281	-8.749494	0.275715	0.091249	0.194103	-0.139211	-0.727182	-0.633089	0.225888
05326	-4.873290	-0.525837	-8.712819	0.280435	0.034630	0.180252	-0.139082	-0.727226	-0.633126	0.225720
05327	-4.912327	-0.538373	-8.667405	0.256622	-0.023214	0.161195	-0.138963	-0.727270	-0.633170	0.225530
05328	-4.932487	-0.572284	-8.592508	0.208480	-0.074975	0.108958	-0.138902	-0.727315	-0.633198	0.225345
05329	-4.931497	-0.585599	-8.545552	0.186996	-0.097215	0.068843	-0.138866	-0.727360	-0.633196	0.225227
05330	-4.869874	-0.662003	-8.585516	0.121992	-0.014402	0.079224	-0.138873	-0.727412	-0.633166	0.225137
05331	-4.847703	-0.681711	-8.644555	0.112543	0.035157	0.121062	-0.138846	-0.727458	-0.633128	0.225114
05332	-4.846735	-0.668546	-8.606026	0.119593	0.014140	0.086150	-0.138755	-0.727520	-0.633100	0.225047
05333	-4.882199	-0.584269	-8.635896	0.203834	-0.017817	0.122808	-0.138634	-0.727578	-0.633070	0.225019
05334	-4.876936	-0.475694	-8.586304	0.304481	-0.056389	0.068584	-0.138509	-0.727627	-0.633060	0.224964
05335	-4.836352	-0.520793	-8.528678	0.256519	-0.044221	0.002206	-0.138382	-0.727635	-0.633097	0.224911
05336	-4.833319	-0.467720	-8.460794	0.299554	-0.085173	-0.062416	-0.138260	-0.727641	-0.633152	0.224815
05337	-4.850183	-0.487442	-8.521987	0.287775	-0.071215	0.000480	-0.138113	-0.727638	-0.633235	0.224679
05338	-4.888572	-0.527099	-8.555187	0.249339	-0.086778	0.051262	-0.137984	-0.727630	-0.633341	0.224488
05339	-4.907507	-0.588285	-8.559168	0.187121	-0.096326	0.068849	-0.137858	-0.727620	-0.633449	0.224292
05340	-4.925707	-0.621396	-8.572135	0.153434	-0.104649	0.091642	-0.137797	-0.727609	-0.633531	0.224134
05341	-4.884861	-0.665042	-8.514743	0.105472	-0.092485	0.025266	-0.137721	-0.727614	-0.633577	0.224034
05342	-4.861909	-0.672465	-8.534984	0.102925	-0.064016	0.032191	-0.137656	-0.727644	-0.633580	0.223968
05343	-4.841318	-0.694705	-8.506344	0.079017	-0.057899	-0.000997	-0.137580	-0.727694	-0.633548	0.223941
05344	-4.920925	-0.677229	-8.557824	0.095868	-0.106674	0.081247	-0.137504	-0.727767	-0.633491	0.223912
05345	-4.938589	-0.601398	-8.518673	0.163228	-0.153709	0.049810	-0.137426	-0.727878	-0.633382	0.223908
05346	-4.898297	-0.617867	-8.469431	0.143801	-0.140323	-0.011362	-0.137362	-0.727978	-0.633278	0.223917
05347	-4.815737	-0.608408	-8.428079	0.155780	-0.090180	-0.088408	-0.137306	-0.728076	-0.633160	0.223964
05348	-4.774509	-0.610742	-8.426823	0.157988	-0.054475	-0.109473	-0.137269	-0.728134	-0.633080	0.224024
05349	-4.756858	-0.674691	-8.426886	0.098097	-0.028424	-0.112951	-0.137233	-0.728170	-0.633014	0.224118
05350	-4.738628	-0.752107	-8.466212	0.030764	0.018795	-0.081516	-0.137174	-0.728219	-0.632945	0.224188
05351	-4.650645	-0.700577	-8.570332	0.107642	0.135900	-0.038239	-0.137059	-0.728242	-0.632914	0.224272
05352	-4.688776	-0.645757	-8.590193	0.162807	0.102793	-0.006773	-0.136947	-0.728257	-0.632903	0.224323
05353	-4.726194	-0.658402	-8.718789	0.167912	0.131848	0.124219	-0.136799	-0.728281	-0.632894	0.224361
05354	-4.783364	-0.609638	-8.759628	0.218326	0.091507	0.183676	-0.136601	-0.728338	-0.632871	0.224361
05355	-4.858977	-0.538870	-8.830393	0.293068	0.045092	0.276314	-0.136422	-0.728368	-0.632882	0.224343
05356	-4.920862	-0.546599	-8.765081	0.271405	-0.041086	0.250361	-0.136247	-0.728387	-0.632901	0.224333
05357	-4.918156	-0.562232	-8.805373	0.264382	-0.019881	0.285266	-0.136096	-0.728397	-0.632924	0.224328
05358	-4.836473	-0.622721	-8.785115	0.211300	0.049037	0.232731	-0.136008	-0.728397	-0.632950	0.224310
05359	-4.711726	-0.615804	-8.742891	0.225609	0.134772	0.134606	-0.135928	-0.728361	-0.633005	0.224318
05360	-4.691288	-0.665629	-8.791816	0.187081	0.183177	0.171236	-0.135921	-0.728306	-0.633053	0.224367
05361	-4.654700	-0.684315	-8.653913	0.153465	0.153064	0.035041	-0.135870	-0.728247	-0.633110	0.224429
05362	-4.715708	-0.648844	-8.645332	0.182245	0.090395	0.054393	-0.135847	-0.728214	-0.633145	0.224451
05363	-4.795947	-0.632328	-8.696531	0.199372	0.041599	0.136640	-0.135770	-0.728169	-0.633213	0.224449
05364	-4.877941	-0.630209	-8.699243	0.194593	-0.029493	0.178787	-0.135740	-0.728126	-0.633270	0.224447
05365	-4.961213	-0.668773	-8.731547	0.154107	-0.080673	0.250640	-0.135726	-0.728081	-0.633317	0.224467
05366	-4.918494	-0.697580	-8.808855	0.141963	-0.002704	0.299383	-0.135716	-0.728055	-0.633349	0.224466
05367	-4.891975	-0.689944	-8.964857	0.175786	0.091525	0.421413	-0.135636	-0.728081	-0.633355	0.224415
05368	-4.866897	-0.615404	-8.925589	0.245201	0.080107	0.368914	-0.135519	-0.728164	-0.633335	0.224275
05369	-4.862762	-0.573824	-8.897633	0.281335	0.060240	0.339200	-0.135417	-0.728243	-0.633319	0.224125
05370	-4.820097	-0.534742	-8.780516	0.305056	0.032533	0.213410	-0.135325	-0.728340	-0.633276	0.223988
05371	-4.738413	-0.579010	-8.721384	0.259420	0.080275	0.125955	-0.135314	-0.728393	-0.633254	0.223882
05372	-4.782334	-0.617967	-8.665229	0.206528	0.021258	0.101731	-0.135381	-0.728383	-0.633273	0.223819
05373	-4.870476	-0.682984	-8.600164	0.122774	-0.074578	0.093381	-0.135505	-0.728326	-0.633314	0.223815
05374	-4.892374	-0.687507	-8.619638	0.117900	-0.081709	0.121374	-0.135646	-0.728223	-0.633396	0.223835
05375	-4.849401	-0.699992	-8.744624	0.127664	0.018562	0.210210	-0.135792	-0.728117	-0.633484	0.223840
05376	-4.846306	-0.615283	-8.772247	0.213963	0.022248	0.225804	-0.135897	-0.728033	-0.633578	0.223782
05377	-4.826610	-0.648814	-8.782055	0.182883	0.049493	0.227518	-0.135975	-0.727958	-0.633679	0.223694
05378	-4.848285	-0.667356	-8.754218	0.156374	0.020034	0.215408	-0.136029	-0.727935	-0.633733	0.223583
05379	-4.826413	-0.659680	-8.734950	0.161274	0.027336	0.187415	-0.136027	-0.727966	-0.633748	0.223440
05380	-4.804689	-0.638864	-8.676697	0.173075	0.013524	0.124521	-0.136020	-0.728005	-0.633754	0.223301
05381	-4.862437	-0.518420	-8.609566	0.274090	-0.089056	0.084464	-0.136021	-0.728042	-0.633758	0.223170
05382	-4.887087	-0.579226	-8.524116	0.197142	-0.142047	0.027060	-0.136076	-0.728060	-0.633752	0.223092
05383	-4.828444	-0.628583	-8.483913	0.146751	-0.101543	-0.032405	-0.136205	-0.728048	-0.633744	0.223073
05384	-4.830231	-0.626288	-8.483066	0.146629	-0.101446	-0.032402	-0.136405	-0.727998	-0.633756	0.223084
05385	-4.774783	-0.716399	-8.471500	0.060256	-0.040999	-0.062160	-0.136622	-0.727909	-0.633786	0.223156
05386	-4.756220	-0.735099	-8.528225	0.050538	0.008608	-0.020344	-0.136819	-0.727843	-0.633801	0.223205
05387	-4.753213	-0.676888	-8.633456	0.122762	0.054545	0.065052	-0.136925	-0.727783	-0.633830	0.223253
05388	-4.692681	-0.671644	-8.611428	0.129717	0.097465	0.015981	-0.137014	-0.727773	-0.633831	0.223231
05389	-4.728196	-0.571215	-8.689001	0.235596	0.087867	0.092748	-0.137013	-0.727794	-0.633815	0.223210
05390	-4.768456	-0.569310	-8.690832	0.233150	0.052372	0.113830	-0.136946	-0.727844	-0.633798	0.223134
05391	-4.848693	-0.511828	-8.625323	0.271801	-0.059827	0.091379	-0.136839	-0.727897	-0.633804	0.223011
05392	-4.930395	-0.523009	-8.580959	0.245393	-0.153249	0.093447	-0.136733	-0.727939	-0.633826	0.222874
05393	-5.011850	-0.493306	-8.506399	0.255236	-0.266644	0.065803	-0.136667	-0.727944	-0.633868	0.222779
05394	-4.913017	-0.601278	-8.447274	0.149287	-0.192916	-0.025134	-0.136716	-0.727903	-0.633923	0.222725
05395	-4.814154	-0.694280	-8.435583	0.065239	-0.096882	-0.075977	-0.136841	-0.727829	-0.633965	0.222772
05396	-4.714009	-0.785978	-8.510976	-0.004612	0.042663	-0.051821	-0.136980	-0.727751	-0.633997	0.222853
05397	-4.650515	-0.711441	-8.554972	0.081859	0.110279	-0.050407	-0.137115	-0.727663	-0.634018	0.222996
05398	-4.671459	-0.661853	-8.591957	0.134607	0.105547	-0.012022	-0.137231	-0.727613	-0.634000	0.223137
05399	-4.795670	-0.602135	-8.612506	0.185394	0.001239	0.061618	-0.137273	-0.727594	-0.633963	0.223278
05400	-4.851485	-0.481676	-8.718723	0.315065	-0.014352	0.171579	-0.137241	-0.727617	-0.633923	0.223339
05401	-4.932743	-0.451429	-8.730409	0.339372	-0.084263	0.218938	-0.137190	-0.727656	-0.633891	0.223335
05402	-4.954082	-0.471880	-8.702650	0.312868	-0.113721	0.206839	-0.137151	-0.727693	-0.633875	0.223281
05403	-4.933565	-0.493633	-8.673996	0.288960	-0.107621	0.173647	-0.137093	-0.727733	-0.633867	0.223212
05404	-4.872211	-0.557413	-8.674285	0.231122	-0.045956	0.149082	-0.137085	-0.727757	-0.633879	0.223103
05405	-4.813476	-0.635336	-8.625690	0.151922	-0.006660	0.084414	-0.137119	-0.727755	-0.633894	0.223048
05406	-4.794772	-0.655887	-8.596109	0.127741	-0.000532	0.051227	-0.137228	-0.727750	-0.633879	0.223036
05407	-4.717744	-0.740949	-8.565113	0.046116	0.067129	-0.006534	-0.137358	-0.727731	-0.633851	0.223098
05408	-4.698487	-0.706469	-8.552849	0.079554	0.075647	-0.029331	-0.137490	-0.727698	-0.633829	0.223187
05409	-4.757042	-0.612206	-8.649086	0.180686	0.058843	0.075428	-0.137601	-0.727679	-0.633784	0.223311
05410	-4.796065	-0.540271	-8.716072	0.257492	0.048092	0.147003	-0.137667	-0.727660	-0.633767	0.223379
05411	-4.860987	-0.558894	-8.688243	0.228933	-0.016988	0.155985	-0.137698	-0.727667	-0.633740	0.223414
05412	-4.842227	-0.580830	-8.658603	0.204753	-0.010862	0.122799	-0.137697	-0.727662	-0.633748	0.223408
05413	-4.840241	-0.553178	-8.668210	0.233710	-0.009592	0.127991	-0.137659	-0.727650	-0.633785	0.223367
05414	-4.880012	-0.497568	-8.600848	0.274418	-0.086178	0.084481	-0.137616	-0.727630	-0.633848	0.223279
05415	-4.839740	-0.554639	-8.582071	0.219276	-0.052912	0.052999	-0.137587	-0.727590	-0.633924	0.223210
05416	-4.759612	-0.640952	-8.552763	0.137381	0.014773	-0.004762	-0.137574	-0.727548	-0.634005	0.223126
05417	-4.757881	-0.654094	-8.592680	0.130357	0.035994	0.030134	-0.137545	-0.727505	-0.634071	0.223097
05418	-4.797640	-0.665942	-8.633693	0.120741	0.021655	0.086122	-0.137506	-0.727491	-0.634111	0.223052
05419	-4.858665	-0.657523	-8.616548	0.120989	-0.042228	0.100306	-0.137419	-0.727503	-0.634128	0.223018
05420	-4.917259	-0.593520	-8.617789	0.178583	-0.103687	0.124885	-0.137388	-0.727525	-0.634116	0.222999
05421	-4.933786	-0.502939	-8.626749	0.267580	-0.128390	0.133564	-0.137371	-0.727552	-0.634088	0.223001
05422	-4.952082	-0.493800	-8.695617	0.284346	-0.113157	0.201655	-0.137385	-0.727586	-0.634048	0.222994
05423	-4.849734	-0.477492	-8.633619	0.301064	-0.055845	0.096578	-0.137421	-0.727600	-0.634025	0.222991
05424	-4.808813	-0.478250	-8.632210	0.303268	-0.020157	0.075491	-0.137484	-0.727598	-0.634016	0.222987
05425	-4.794118	-0.541829	-8.544405	0.228913	-0.037612	-0.002988	-0.137568	-0.727579	-0.634005	0.223027
05426	-4.777906	-0.644712	-8.574317	0.132773	0.008420	0.023229	-0.137663	-0.727562	-0.633997	0.223048
05427	-4.861988	-0.681073	-8.606513	0.092293	-0.042725	0.095113	-0.137718	-0.727571	-0.633994	0.222993
05428	-4.904094	-0.706006	-8.598911	0.061040	-0.079404	0.111013	-0.137718	-0.727585	-0.634005	0.222918
05429	-4.923673	-0.711275	-8.619654	0.056441	-0.086548	0.139007	-0.137702	-0.727590	-0.634008	0.222899
05430	-4.939282	-0.592863	-8.637537	0.173975	-0.110023	0.152886	-0.137714	-0.727603	-0.633980	0.222931
05431	-4.853849	-0.499912	-8.623122	0.272367	-0.056340	0.091384	-0.137728	-0.727619	-0.633935	0.222998
05432	-4.833695	-0.507419	-8.641698	0.269824	-0.027865	0.098289	-0.137749	-0.727645	-0.633887	0.223035
05433	-4.812527	-0.473891	-8.630379	0.303528	-0.019379	0.075484	-0.137756	-0.727670	-0.633845	0.223069
05434	-4.793563	-0.441911	-8.531423	0.322499	-0.054371	-0.022297	-0.137753	-0.727698	-0.633812	0.223074
05435	-4.814718	-0.474855	-8.542784	0.289091	-0.062712	0.000500	-0.137745	-0.727739	-0.633793	0.222999
05436	-4.838452	-0.549602	-8.496838	0.204970	-0.094574	-0.021979	-0.137741	-0.727773	-0.633792	0.222892
05437	-4.796942	-0.631865	-8.556768	0.135482	-0.019004	0.016324	-0.137709	-0.727811	-0.633790	0.222796
05438	-4.855150	-0.620385	-8.627701	0.149926	-0.039345	0.105506	-0.137689	-0.727851	-0.633778	0.222712
05439	-4.915100	-0.582777	-8.619753	0.178984	-0.102027	0.124895	-0.137682	-0.727893	-0.633746	0.222669
05440	-4.936029	-0.574862	-8.600787	0.181286	-0.130292	0.118000	-0.137711	-0.727913	-0.633710	0.222690
05441	-4.934328	-0.519358	-8.618648	0.239051	-0.127821	0.128385	-0.137748	-0.727907	-0.633678	0.222777
05442	-4.894534	-0.521307	-8.616523	0.241253	-0.092135	0.107292	-0.137800	-0.727901	-0.633645	0.222859
05443	-4.916050	-0.527284	-8.636113	0.236655	-0.099275	0.135285	-0.137809	-0.727899	-0.633630	0.222903
05444	-4.855929	-0.551265	-8.605265	0.214795	-0.057575	0.081002	-0.137797	-0.727909	-0.633617	0.222913
05445	-4.795004	-0.575313	-8.574864	0.193206	-0.015907	0.026711	-0.137740	-0.727932	-0.633609	0.222894
05446	-4.733015	-0.599264	-8.545052	0.171351	0.025793	-0.027574	-0.137654	-0.727977	-0.633607	0.222808
05447	-4.793626	-0.631159	-8.558678	0.135620	-0.018128	0.016324	-0.137537	-0.728044	-0.633592	0.222701
05448	-4.771687	-0.653090	-8.530839	0.111439	-0.012014	-0.016864	-0.137424	-0.728125	-0.633569	0.222573
05449	-4.764821	-0.569897	-8.560058	0.198010	-0.008345	-0.001285	-0.137306	-0.728196	-0.633536	0.222506
05450	-4.864549	-0.503946	-8.562697	0.253284	-0.105376	0.044408	-0.137296	-0.728204	-0.633529	0.222507
05451	-4.990822	-0.581244	-8.626131	0.174506	-0.172125	0.167103	-0.137307	-0.728206	-0.633488	0.222612
05452	-4.971276	-0.602283	-8.683198	0.164789	-0.122489	0.208895	-0.137395	-0.728209	-0.633419	0.222743
05453	-4.908087	-0.569358	-8.757278	0.215283	-0.034906	0.239966	-0.137453	-0.728198	-0.633371	0.222881
05454	-4.849593	-0.606598	-8.764428	0.186251	0.027954	0.220569	-0.137532	-0.728200	-0.633311	0.222997
05455	-4.789175	-0.615970	-8.781165	0.186300	0.091979	0.206360	-0.137552	-0.728226	-0.633244	0.223088
05456	-4.766619	-0.555269	-8.779062	0.248541	0.101693	0.188752	-0.137509	-0.728279	-0.633183	0.223115
05457	-4.765458	-0.501944	-8.710236	0.291841	0.060642	0.124158	-0.137394	-0.728364	-0.633118	0.223091
05458	-4.865575	-0.450699	-8.665159	0.325477	-0.058745	0.129774	-0.137229	-0.728475	-0.633076	0.222949
05459	-4.906846	-0.545470	-8.679960	0.229710	-0.076688	0.170184	-0.137083	-0.728576	-0.633038	0.222818
05460	-4.881769	-0.565630	-8.740213	0.219991	-0.027050	0.211972	-0.136983	-0.728672	-0.633003	0.222666
05461	-4.856438	-0.544286	-8.770162	0.246525	0.002594	0.224055	-0.136927	-0.728751	-0.632969	0.222540
05462	-4.796372	-0.581223	-8.691916	0.203025	0.021924	0.129682	-0.136935	-0.728809	-0.632936	0.222440
05463	-4.793468	-0.565208	-8.740995	0.224812	0.044360	0.169761	-0.136960	-0.728854	-0.632892	0.222402
05464	-4.773522	-0.558302	-8.720564	0.229435	0.051672	0.141766	-0.137038	-0.728881	-0.632837	0.222417
05465	-4.796996	-0.590687	-8.730741	0.196030	0.043338	0.164567	-0.137146	-0.728886	-0.632783	0.222490
05466	-4.901144	-0.564057	-8.761508	0.215325	-0.033722	0.239969	-0.137284	-0.728893	-0.632715	0.222575
05467	-4.926151	-0.583334	-8.731869	0.189092	-0.063220	0.227882	-0.137391	-0.728899	-0.632656	0.222657
05468	-4.864223	-0.563565	-8.757918	0.217674	0.002031	0.218863	-0.137496	-0.728927	-0.632595	0.222676
05469	-4.782735	-0.552544	-8.715882	0.229639	0.052094	0.141760	-0.137526	-0.728968	-0.632553	0.222641
05470	-4.699231	-0.554626	-8.713903	0.234160	0.123352	0.099550	-0.137532	-0.729040	-0.632504	0.222540
05471	-4.679871	-0.548746	-8.606823	0.224586	0.087098	-0.003422	-0.137511	-0.729113	-0.632471	0.222410
05472	-4.679919	-0.561464	-8.559525	0.202829	0.064833	-0.043501	-0.137504	-0.729204	-0.632419	0.222264
05473	-4.760523	-0.568989	-8.602312	0.191162	0.014917	0.033598	-0.137527	-0.729272	-0.632366	0.222175
05474	-4.781349	-0.559623	-8.583523	0.193466	-0.013356	0.026710	-0.137616	-0.729307	-0.632316	0.222145
05475	-4.803811	-0.604438	-8.633295	0.152890	-0.000522	0.084401	-0.137734	-0.729314	-0.632269	0.222183
05476	-4.760186	-0.575524	-8.728110	0.198365	0.079892	0.143455	-0.137863	-0.729307	-0.632233	0.222231
05477	-4.718310	-0.507612	-8.705075	0.265622	0.096774	0.097839	-0.137957	-0.729287	-0.632219	0.222276
05478	-4.740221	-0.499155	-8.685603	0.267923	0.068501	0.090952	-0.138012	-0.729290	-0.632214	0.222248
05479	-4.679401	-0.522115	-8.655220	0.246331	0.110152	0.036649	-0.137997	-0.729310	-0.632222	0.222169
05480	-4.721107	-0.534038	-8.608962	0.222248	0.052306	0.017681	-0.137956	-0.729351	-0.632227	0.222044
05481	-4.720352	-0.560539	-8.601058	0.193588	0.051177	0.012485	-0.137931	-0.729386	-0.632243	0.221900
05482	-4.762820	-0.612753	-8.585047	0.133529	0.013297	0.023213	-0.137934	-0.729414	-0.632251	0.221786
05483	-4.822888	-0.574780	-8.577029	0.162587	-0.049378	0.042625	-0.137953	-0.729400	-0.632266	0.221773
05484	-4.821503	-0.559514	-8.625165	0.184104	-0.026911	0.082705	-0.138046	-0.729380	-0.632255	0.221813
05485	-4.780630	-0.532841	-8.632039	0.215382	0.009937	0.066784	-0.138163	-0.729353	-0.632230	0.221899
05486	-4.739201	-0.465170	-8.608650	0.282368	0.026840	0.021173	-0.138293	-0.729326	-0.632214	0.221957
05487	-4.724154	-0.514045	-8.568733	0.229645	0.031712	-0.017213	-0.138423	-0.729294	-0.632196	0.222029
05488	-4.668980	-0.592644	-8.518526	0.150166	0.070985	-0.081896	-0.138527	-0.729273	-0.632182	0.222075
05489	-4.668165	-0.577139	-8.566402	0.171952	0.093429	-0.041822	-0.138584	-0.729273	-0.632164	0.222092
05490	-4.745079	-0.515396	-8.675227	0.239274	0.068323	0.085749	-0.138580	-0.729309	-0.632150	0.222015
05491	-4.783240	-0.485187	-8.686625	0.265909	0.034023	0.112049	-0.138506	-0.729332	-0.632174	0.221918
05492	-4.869682	-0.605044	-8.692630	0.138740	-0.020662	0.168396	-0.138506	-0.729352	-0.632180	0.221832
05493	-4.929812	-0.567455	-8.684472	0.167801	-0.083334	0.187813	-0.138500	-0.729352	-0.632184	0.221828
05494	-4.867296	-0.522824	-8.632741	0.210722	-0.060434	0.109010	-0.138529	-0.729338	-0.632187	0.221847
05495	-4.844924	-0.461631	-8.630273	0.273233	-0.050759	0.091391	-0.138599	-0.729279	-0.632218	0.221908
05496	-4.786478	-0.485555	-8.598560	0.251370	-0.009093	0.037090	-0.138700	-0.729211	-0.632249	0.221981
05497	-4.727682	-0.522863	-8.606039	0.222607	0.053724	0.017665	-0.138770	-0.729116	-0.632307	0.222081
05498	-4.647686	-0.501117	-8.524054	0.241465	0.082614	-0.094330	-0.138807	-0.729042	-0.632363	0.222141
05499	-4.706603	-0.462650	-8.602839	0.284992	0.063491	0.000046	-0.138844	-0.728977	-0.632432	0.222135
05500	-4.792021	-0.514497	-8.587045	0.222610	-0.009960	0.031897	-0.138840	-0.728920	-0.632517	0.222085
05501	-4.916285	-0.549854	-8.621241	0.179818	-0.096629	0.124934	-0.138842	-0.728865	-0.632595	0.222041
05502	-4.916791	-0.590472	-8.651614	0.143714	-0.076559	0.154629	-0.138870	-0.728817	-0.632652	0.222018
05503	-4.933526	-0.499455	-8.660019	0.232712	-0.101256	0.163316	-0.138907	-0.728779	-0.632686	0.222023
05504	-4.892643	-0.500873	-8.658551	0.234908	-0.065590	0.142204	-0.138954	-0.728764	-0.632690	0.222030
05505	-4.893089	-0.500757	-8.658306	0.235058	-0.065517	0.142200	-0.138954	-0.728769	-0.632675	0.222059
05506	-4.851535	-0.515229	-8.696222	0.230085	-0.008671	0.155969	-0.139000	-0.728799	-0.632630	0.222059
05507	-4.852427	-0.501618	-8.656754	0.237403	-0.029775	0.121083	-0.139002	-0.728839	-0.632579	0.222070
05508	-4.912031	-0.436258	-8.657167	0.294998	-0.091216	0.145704	-0.139037	-0.728884	-0.632522	0.222064
05509	-4.893407	-0.403643	-8.557934	0.314228	-0.126301	0.047936	-0.139111	-0.728884	-0.632501	0.222079
05510	-4.838427	-0.523028	-8.538329	0.198769	-0.067065	0.012942	-0.139226	-0.728854	-0.632492	0.222130
05511	-4.738622	-0.602134	-8.575188	0.136351	0.051296	0.002084	-0.139279	-0.728813	-0.632513	0.222173
05512	-4.734799	-0.572743	-8.672052	0.179508	0.096152	0.082229	-0.139254	-0.728792	-0.632548	0.222155
05513	-4.749612	-0.482674	-8.681403	0.268505	0.071456	0.090916	-0.139122	-0.728796	-0.632604	0.222067
05514	-4.803054	-0.416855	-8.771508	0.340570	0.053572	0.190491	-0.138974	-0.728830	-0.632649	0.221920
05515	-4.883972	-0.428139	-8.727591	0.314437	-0.039874	0.192655	-0.138841	-0.728879	-0.632680	0.221753
05516	-4.865257	-0.492464	-8.642382	0.239799	-0.057368	0.114206	-0.138761	-0.728929	-0.632687	0.221619
05517	-4.902808	-0.462474	-8.654143	0.266435	-0.091662	0.140514	-0.138701	-0.728956	-0.632697	0.221538
05518	-4.901987	-0.449128	-8.615654	0.273477	-0.112744	0.105638	-0.138690	-0.728954	-0.632724	0.221477
05519	-4.946741	-0.489439	-8.559402	0.220856	-0.171824	0.081496	-0.138745	-0.728909	-0.632763	0.221480
05520	-4.886680	-0.538663	-8.606559	0.184652	-0.087804	0.096947	-0.138883	-0.728863	-0.632764	0.221541
05521	-4.808517	-0.555938	-8.554237	0.167802	-0.038978	0.014632	-0.139033	-0.728810	-0.632767	0.221612
05522	-4.730266	-0.626896	-8.571670	0.107533	0.051033	-0.003111	-0.139148	-0.728793	-0.632750	0.221644
05523	-4.708355	-0.564837	-8.568972	0.170042	0.060702	-0.020735	-0.139208	-0.728792	-0.632724	0.221682
05524	-4.709852	-0.551418	-8.529166	0.177085	0.039614	-0.055612	-0.139242	-0.728808	-0.632691	0.221705
05525	-4.728465	-0.488470	-8.528088	0.237271	0.013715	-0.052114	-0.139237	-0.728831	-0.632649	0.221753
05526	-4.766231	-0.457581	-8.625971	0.278108	0.023010	0.049150	-0.139228	-0.728850	-0.632611	0.221806
05527	-4.809883	-0.471375	-8.578529	0.254293	-0.034869	0.030201	-0.139181	-0.728863	-0.632592	0.221842
05528	-4.830239	-0.464915	-8.559770	0.256592	-0.063146	0.023328	-0.139104	-0.728887	-0.632586	0.221830
05529	-4.808580	-0.514024	-8.609821	0.218341	-0.014718	0.059890	-0.139010	-0.728864	-0.632654	0.221771
05530	-4.787615	-0.536982	-8.581477	0.194151	-0.008633	0.026702	-0.138927	-0.728843	-0.632723	0.221694
05531	-4.722807	-0.546708	-8.600600	0.194197	0.055380	0.012451	-0.138820	-0.728839	-0.632789	0.221588
05532	-4.721423	-0.574979	-8.592976	0.165265	0.054276	0.007263	-0.138706	-0.728844	-0.632848	0.221475
05533	-4.714922	-0.533118	-8.652180	0.215863	0.077937	0.052516	-0.138571	-0.728861	-0.632888	0.221388
05534	-4.752511	-0.504305	-8.663838	0.242226	0.043673	0.078834	-0.138492	-0.728870	-0.632915	0.221333
05535	-4.855667	-0.494222	-8.647673	0.240156	-0.055761	0.114207	-0.138476	-0.728836	-0.632936	0.221393
05536	-4.917943	-0.458410	-8.638269	0.268939	-0.118401	0.133651	-0.138523	-0.728786	-0.632938	0.221520
05537	-4.860027	-0.483715	-8.606117	0.247345	-0.076776	0.079330	-0.138564	-0.728718	-0.632953	0.221678
05538	-4.777313	-0.473724	-8.650824	0.273503	0.016841	0.077146	-0.138612	-0.728651	-0.632985	0.221775
05539	-4.758547	-0.510036	-8.660189	0.242420	0.044086	0.078827	-0.138573	-0.728580	-0.633066	0.221802
05540	-4.695934	-0.507019	-8.639066	0.249359	0.086936	0.029700	-0.138523	-0.728548	-0.633136	0.221740
05541	-4.672009	-0.527923	-8.698617	0.239917	0.136571	0.071446	-0.138398	-0.728557	-0.633189	0.221636
05542	-4.733046	-0.588135	-8.703741	0.175109	0.091508	0.110200	-0.138225	-0.728584	-0.633248	0.221484
05543	-4.890046	-0.498805	-8.738673	0.252402	-0.047067	0.210278	-0.138040	-0.728617	-0.633298	0.221352
05544	-4.968406	-0.455446	-8.713156	0.283609	-0.138082	0.222853	-0.137906	-0.728635	-0.633345	0.221240
05545	-5.031443	-0.502767	-8.678400	0.226245	-0.204355	0.226728	-0.137830	-0.728614	-0.633396	0.221210
05546	-4.971664	-0.514259	-8.608346	0.211540	-0.183894	0.137537	-0.137867	-0.728564	-0.633431	0.221251
05547	-4.867017	-0.510888	-8.672397	0.235549	-0.061926	0.142212	-0.137920	-0.728482	-0.633482	0.221343
05548	-4.808537	-0.535171	-8.640551	0.213677	-0.020280	0.087893	-0.138008	-0.728396	-0.633539	0.221408
05549	-4.726106	-0.497968	-8.607184	0.254441	0.030933	0.015943	-0.138025	-0.728334	-0.633601	0.221422
05550	-4.686465	-0.568265	-8.627075	0.191852	0.085377	0.019312	-0.138012	-0.728314	-0.633650	0.221359
05551	-4.707240	-0.588692	-8.599826	0.165614	0.055870	0.007248	-0.137922	-0.728324	-0.633688	0.221272
05552	-4.762689	-0.550407	-8.680590	0.208874	0.036815	0.101636	-0.137802	-0.728366	-0.633705	0.221159
05553	-4.884360	-0.532498	-8.647058	0.209229	-0.090990	0.130154	-0.137676	-0.728413	-0.633725	0.221025
05554	-4.981325	-0.479201	-8.690290	0.257334	-0.166793	0.210802	-0.137569	-0.728458	-0.633742	0.220897
05555	-4.961304	-0.488349	-8.622550	0.240586	-0.181928	0.142734	-0.137539	-0.728454	-0.633762	0.220871
05556	-4.960653	-0.501860	-8.661777	0.233291	-0.160639	0.177613	-0.137561	-0.728403	-0.633793	0.220935
05557	-4.854579	-0.470789	-8.734857	0.286109	-0.037467	0.187465	-0.137611	-0.728343	-0.633820	0.221027
05558	-4.815294	-0.459953	-8.693407	0.295467	-0.022997	0.131462	-0.137647	-0.728293	-0.633854	0.221068
05559	-4.796540	-0.536226	-8.733228	0.228410	0.024237	0.162825	-0.137631	-0.728262	-0.633898	0.221057
05560	-4.775035	-0.530606	-8.713539	0.233024	0.031521	0.134824	-0.137579	-0.728268	-0.633934	0.220965
05561	-4.774400	-0.504085	-8.636119	0.247505	-0.010792	0.065074	-0.137518	-0.728306	-0.633946	0.220843
05562	-4.733320	-0.560651	-8.617857	0.192081	0.022459	0.033566	-0.137444	-0.728351	-0.633956	0.220712
05563	-4.795549	-0.566080	-8.553176	0.170689	-0.063804	0.007768	-0.137363	-0.728380	-0.633971	0.220621
05564	-4.774874	-0.547422	-8.494154	0.182470	-0.077716	-0.055105	-0.137363	-0.728368	-0.633988	0.220615
05565	-4.794439	-0.525768	-8.523254	0.206683	-0.083623	-0.021915	-0.137399	-0.728318	-0.634004	0.220710
05566	-4.815131	-0.504204	-8.551715	0.230621	-0.089502	0.011280	-0.137479	-0.728266	-0.634015	0.220803
05567	-4.813587	-0.556634	-8.708088	0.202106	-0.004651	0.150765	-0.137513	-0.728221	-0.634036	0.220868
05568	-4.768830	-0.516035	-8.764208	0.254749	0.054616	0.174880	-0.137493	-0.728214	-0.634058	0.220841
05569	-4.788071	-0.508660	-8.746247	0.257322	0.026312	0.168008	-0.137397	-0.728239	-0.634095	0.220712
05570	-4.788166	-0.551018	-8.690557	0.206740	0.002808	0.122763	-0.137254	-0.728306	-0.634109	0.220537
05571	-4.743514	-0.539608	-8.652071	0.216375	0.017244	0.066752	-0.137095	-0.728376	-0.634119	0.220378
05572	-4.762013	-0.519340	-8.595696	0.225836	-0.032230	0.025017	-0.136993	-0.728411	-0.634141	0.220262
05573	-4.865149	-0.495900	-8.541198	0.230934	-0.152849	0.025552	-0.136974	-0.728388	-0.634172	0.220260
05574	-4.846136	-0.531393	-8.550571	0.199576	-0.125579	0.027235	-0.137040	-0.728331	-0.634197	0.220336
05575	-4.805555	-0.505899	-8.557000	0.230852	-0.088743	0.011282	-0.137128	-0.728227	-0.634250	0.220475
05576	-4.744712	-0.488126	-8.581918	0.259430	-0.023499	0.002201	-0.137245	-0.728080	-0.634338	0.220632
05577	-4.665378	-0.533368	-8.607630	0.228241	0.067682	-0.010399	-0.137309	-0.727967	-0.634410	0.220759
05578	-4.665765	-0.547194	-8.646252	0.220947	0.088979	0.024473	-0.137318	-0.727908	-0.634473	0.220766
05579	-4.685148	-0.607063	-8.736430	0.173212	0.123063	0.117026	-0.137266	-0.727894	-0.634517	0.220717
05580	-4.765296	-0.563069	-8.710184	0.204420	0.032056	0.129626	-0.137180	-0.727936	-0.634528	0.220600
05581	-4.847196	-0.574542	-8.666251	0.178288	-0.061389	0.131847	-0.137037	-0.728015	-0.634514	0.220470
05582	-4.884034	-0.545253	-8.678600	0.204650	-0.095644	0.158178	-0.136922	-0.728087	-0.634491	0.220370
05583	-4.921016	-0.488456	-8.699242	0.260098	-0.128717	0.189691	-0.136876	-0.728111	-0.634467	0.220387
05584	-4.879428	-0.409215	-8.636946	0.334239	-0.133047	0.109192	-0.136925	-0.728083	-0.634447	0.220507
05585	-4.902788	-0.415828	-8.655530	0.329646	-0.140152	0.137193	-0.137042	-0.728014	-0.634430	0.220713
05586	-4.871168	-0.529644	-8.615011	0.216600	-0.109318	0.095307	-0.137172	-0.727921	-0.634437	0.220920
05587	-4.732122	-0.598469	-8.609444	0.163664	0.023390	0.028366	-0.137251	-0.727809	-0.634500	0.221054
05588	-4.647336	-0.560393	-8.663405	0.218626	0.118215	0.031326	-0.137241	-0.727723	-0.634581	0.221111
05589	-4.601985	-0.520832	-8.719819	0.271544	0.177456	0.055421	-0.137165	-0.727657	-0.634681	0.221089
05590	-4.642440	-0.547997	-8.713195	0.240288	0.140792	0.071378	-0.137045	-0.727640	-0.634771	0.220962
05591	-4.679556	-0.506225	-8.686419	0.274092	0.085314	0.062836	-0.136877	-0.727658	-0.634841	0.220806
05592	-4.796929	-0.446457	-8.711206	0.324625	-0.018841	0.136646	-0.136731	-0.727691	-0.634886	0.220657
05593	-4.938889	-0.434591	-8.698433	0.320243	-0.153811	0.193212	-0.136638	-0.727714	-0.634921	0.220540
05594	-5.043007	-0.533325	-8.734758	0.217142	-0.214415	0.282818	-0.136604	-0.727734	-0.634930	0.220467
05595	-5.061891	-0.551594	-8.794767	0.205386	-0.200313	0.345689	-0.136646	-0.727732	-0.634921	0.220476
05596	-4.960426	-0.589365	-8.801039	0.178656	-0.101931	0.305077	-0.136721	-0.727706	-0.634916	0.220528
05597	-4.899078	-0.556859	-8.787479	0.214676	-0.057921	0.261110	-0.136813	-0.727696	-0.634890	0.220582
05598	-4.840953	-0.525759	-8.686086	0.235936	-0.057498	0.142229	-0.136912	-0.727702	-0.634845	0.220626
05599	-4.701013	-0.525829	-8.572881	0.233303	0.012797	-0.024137	-0.136951	-0.727723	-0.634799	0.220666
05600	-4.600318	-0.591353	-8.570424	0.177772	0.109970	-0.069942	-0.136965	-0.727770	-0.634748	0.220649
05601	-4.598777	-0.550209	-8.540842	0.213892	0.090044	-0.099624	-0.136883	-0.727827	-0.634724	0.220579
05602	-4.736880	-0.467559	-8.594232	0.288496	-0.020069	0.007386	-0.136818	-0.727867	-0.634730	0.220472
05603	-4.834244	-0.427225	-8.676299	0.329718	-0.074658	0.122921	-0.136763	-0.727892	-0.634738	0.220403
05604	-4.918459	-0.479149	-8.661659	0.267336	-0.148080	0.154848	-0.136761	-0.727908	-0.634743	0.220336
05605	-4.916130	-0.545298	-8.771095	0.217181	-0.085596	0.254254	-0.136744	-0.727924	-0.634748	0.220276
05606	-4.956686	-0.543166	-8.773062	0.214732	-0.121047	0.275406	-0.136753	-0.727915	-0.634772	0.220235
05607	-4.871915	-0.477358	-8.749206	0.284301	-0.068660	0.208614	-0.136782	-0.727895	-0.634788	0.220236
05608	-4.812438	-0.500534	-8.717790	0.262422	-0.027038	0.154276	-0.136863	-0.727862	-0.634800	0.220260
05609	-4.733088	-0.517774	-8.665800	0.245562	0.021725	0.071923	-0.136932	-0.727854	-0.634787	0.220282
05610	-4.717500	-0.553804	-8.587280	0.199720	0.005376	-0.001318	-0.137004	-0.727853	-0.634769	0.220292
05611	-4.698901	-0.534656	-8.527166	0.211774	-0.008587	-0.064192	-0.137028	-0.727839	-0.634769	0.220322
05612	-4.781952	-0.490233	-8.499474	0.242986	-0.099591	-0.051566	-0.137107	-0.727827	-0.634762	0.220335
05613	-4.824807	-0.528530	-8.530615	0.204841	-0.115070	-0.000741	-0.137177	-0.727816	-0.634754	0.220348
05614	-4.802124	-0.520091	-8.597699	0.223932	-0.064173	0.046169	-0.137234	-0.727824	-0.634735	0.220341
05615	-4.761681	-0.561627	-8.626267	0.190423	-0.008548	0.054693	-0.137270	-0.727838	-0.634712	0.220337
05616	-4.740810	-0.568514	-8.645102	0.187868	0.019931	0.061551	-0.137279	-0.727853	-0.634690	0.220348
05617	-4.723233	-0.577401	-8.576020	0.171113	0.004757	-0.006508	-0.137310	-0.727872	-0.634652	0.220373
05618	-4.743903	-0.582907	-8.596192	0.166244	-0.002310	0.021501	-0.137312	-0.727898	-0.634617	0.220390
05619	-4.785162	-0.581410	-8.597688	0.164074	-0.037788	0.042651	-0.137276	-0.727939	-0.634576	0.220393
05620	-4.802723	-0.518856	-8.597439	0.223988	-0.063649	0.046172	-0.137217	-0.727969	-0.634562	0.220370
05621	-4.844095	-0.504749	-8.560012	0.228984	-0.120337	0.032459	-0.137171	-0.727979	-0.634562	0.220366
05622	-4.843826	-0.505123	-8.560142	0.228856	-0.120228	0.032464	-0.137172	-0.727979	-0.634557	0.220381
05623	-4.824602	-0.540639	-8.569626	0.197771	-0.092983	0.034129	-0.137180	-0.727967	-0.634548	0.220444
05624	-4.765322	-0.564821	-8.538078	0.175894	-0.051373	-0.020215	-0.137207	-0.727964	-0.634524	0.220503
05625	-4.722368	-0.552210	-8.584707	0.200001	0.006669	-0.001324	-0.137177	-0.727993	-0.634478	0.220559
05626	-4.657811	-0.547178	-8.650541	0.221410	0.093124	0.024424	-0.137142	-0.728022	-0.634439	0.220599
05627	-4.680931	-0.568810	-8.622033	0.195173	0.063607	0.012381	-0.137119	-0.728023	-0.634404	0.220708
05628	-4.641391	-0.612636	-8.649967	0.161387	0.119259	0.020903	-0.137112	-0.728044	-0.634341	0.220823
05629	-4.720692	-0.527525	-8.679836	0.243329	0.051860	0.078767	-0.137042	-0.728065	-0.634306	0.220899
05630	-4.778579	-0.436853	-8.689977	0.329736	-0.008339	0.108631	-0.136951	-0.728082	-0.634299	0.220920
05631	-4.817756	-0.408808	-8.700964	0.356377	-0.042605	0.134968	-0.136881	-0.728085	-0.634305	0.220935
05632	-4.818758	-0.437499	-8.691956	0.327441	-0.043708	0.129787	-0.136862	-0.728068	-0.634324	0.220949
05633	-4.823867	-0.508395	-8.625017	0.248328	-0.068477	0.079366	-0.136857	-0.728037	-0.634352	0.220974
05634	-4.826900	-0.564414	-8.606482	0.190582	-0.070791	0.068999	-0.136867	-0.728005	-0.634381	0.220992
05635	-4.762430	-0.559139	-8.672309	0.212265	0.015635	0.094735	-0.136860	-0.727976	-0.634404	0.221027
05636	-4.781053	-0.537650	-8.701969	0.236203	0.009780	0.127932	-0.136820	-0.727978	-0.634415	0.221011
05637	-4.780753	-0.578873	-8.732528	0.200378	0.029859	0.157603	-0.136765	-0.728019	-0.634385	0.220995
05638	-4.801034	-0.571749	-8.714037	0.202672	0.001579	0.150755	-0.136723	-0.728075	-0.634335	0.220981
05639	-4.777394	-0.510525	-8.712363	0.265180	0.011237	0.133113	-0.136688	-0.728149	-0.634256	0.220986
05640	-4.799030	-0.489997	-8.654317	0.274638	-0.038262	0.091408	-0.136668	-0.728223	-0.634176	0.220985
05641	-4.819405	-0.400874	-8.574968	0.349159	-0.106584	0.025207	-0.136692	-0.728250	-0.634117	0.221047
05642	-4.864210	-0.481216	-8.635309	0.274765	-0.102015	0.105718	-0.136813	-0.728186	-0.634108	0.221211
05643	-4.871261	-0.537103	-8.614497	0.217296	-0.104362	0.095345	-0.136999	-0.728091	-0.634104	0.221420
05644	-4.853877	-0.557728	-8.670195	0.207573	-0.054663	0.137056	-0.137162	-0.727991	-0.634123	0.221593
05645	-4.791379	-0.565586	-8.773918	0.222092	0.052983	0.197642	-0.137215	-0.727909	-0.634174	0.221685
05646	-4.810471	-0.503358	-8.772886	0.282005	0.027119	0.201167	-0.137208	-0.727857	-0.634236	0.221684
05647	-4.731387	-0.536782	-8.673443	0.243497	0.053426	0.078755	-0.137135	-0.727840	-0.634277	0.221666
05648	-4.706357	-0.476157	-8.672542	0.305723	0.063117	0.061119	-0.137025	-0.727881	-0.634289	0.221566
05649	-4.728643	-0.498687	-8.558293	0.265007	-0.010051	-0.025818	-0.136854	-0.727962	-0.634276	0.221442
05650	-4.806846	-0.508678	-8.602481	0.253078	-0.059823	0.051367	-0.136713	-0.728069	-0.634236	0.221290
05651	-4.945847	-0.440619	-8.608208	0.306323	-0.192344	0.118373	-0.136598	-0.728147	-0.634215	0.221164
05652	-4.987380	-0.466188	-8.601192	0.275068	-0.228997	0.134357	-0.136653	-0.728158	-0.634191	0.221166
05653	-4.992413	-0.520767	-8.581546	0.217600	-0.231345	0.123985	-0.136828	-0.728137	-0.634129	0.221302
05654	-4.916695	-0.537926	-8.527467	0.200457	-0.182582	0.041622	-0.137064	-0.728075	-0.634068	0.221533
05655	-4.780213	-0.605340	-8.520475	0.147507	-0.049918	-0.025393	-0.137302	-0.727997	-0.634017	0.221789
05656	-4.704213	-0.636296	-8.505555	0.123199	0.020060	-0.072904	-0.137477	-0.727935	-0.633981	0.221990
05657	-4.639187	-0.588922	-8.627664	0.195334	0.130132	-0.001960	-0.137467	-0.727942	-0.633927	0.222126
05658	-4.677210	-0.545671	-8.686578	0.243341	0.118339	0.064431	-0.137403	-0.728012	-0.633872	0.222092
05659	-4.774812	-0.493157	-8.729441	0.291738	0.042587	0.145136	-0.137202	-0.728103	-0.633853	0.221974
05660	-4.852313	-0.450084	-8.704581	0.322952	-0.048407	0.157800	-0.136957	-0.728221	-0.633827	0.221811
05661	-4.953554	-0.455056	-8.642541	0.299253	-0.170235	0.153242	-0.136748	-0.728316	-0.633813	0.221669
05662	-4.952332	-0.470487	-8.595961	0.277480	-0.192568	0.113208	-0.136626	-0.728368	-0.633805	0.221595
05663	-4.933451	-0.520904	-8.557945	0.224750	-0.187758	0.074827	-0.136593	-0.728363	-0.633817	0.221597
05664	-4.788012	-0.546814	-8.611537	0.221974	-0.031426	0.053030	-0.136649	-0.728329	-0.633816	0.221679
05665	-4.729218	-0.584105	-8.618551	0.193202	0.031360	0.033520	-0.136745	-0.728243	-0.633847	0.221814
05666	-4.667218	-0.538306	-8.652724	0.250579	0.097814	0.029567	-0.136865	-0.728167	-0.633844	0.221996
05667	-4.671449	-0.525954	-8.611524	0.257891	0.076662	-0.005291	-0.136951	-0.728130	-0.633811	0.222158
05668	-4.774092	-0.514509	-8.682114	0.270040	0.020961	0.105096	-0.136930	-0.728156	-0.633767	0.222214
05669	-4.856079	-0.512090	-8.685228	0.265561	-0.050048	0.147428	-0.136811	-0.728211	-0.633742	0.222176
05670	-4.916716	-0.490696	-8.629788	0.272705	-0.135094	0.126905	-0.136664	-0.728280	-0.633732	0.222070
05671	-5.017966	-0.521600	-8.645468	0.234678	-0.214472	0.192066	-0.136509	-0.728339	-0.633732	0.221973
05672	-4.954782	-0.545909	-8.616127	0.212791	-0.172882	0.137707	-0.136391	-0.728386	-0.633735	0.221881
05673	-4.907098	-0.559911	-8.743140	0.222569	-0.072377	0.226278	-0.136265	-0.728453	-0.633699	0.221840
05674	-4.841296	-0.541830	-8.770906	0.251137	-0.007135	0.217138	-0.136181	-0.728525	-0.633650	0.221795
05675	-4.817637	-0.467740	-8.730514	0.320810	-0.018707	0.164638	-0.136121	-0.728570	-0.633618	0.221776
05676	-4.803173	-0.518937	-8.603919	0.253321	-0.057535	0.051374	-0.136145	-0.728619	-0.633547	0.221805
05677	-4.720879	-0.535277	-8.639613	0.250931	0.034844	0.043881	-0.136193	-0.728664	-0.633448	0.221911
05678	-4.739151	-0.403445	-8.617321	0.375630	-0.009814	0.022928	-0.136289	-0.728682	-0.633373	0.222005
05679	-4.805776	-0.421407	-8.589078	0.347081	-0.074878	0.032070	-0.136425	-0.728683	-0.633302	0.222122
05680	-4.771624	-0.559579	-8.627523	0.219696	-0.001631	0.059871	-0.136562	-0.728679	-0.633240	0.222225
05681	-4.771389	-0.598624	-8.744221	0.198350	0.062128	0.164422	-0.136597	-0.728699	-0.633187	0.222293
05682	-4.788421	-0.561821	-8.822157	0.243930	0.078734	0.237655	-0.136594	-0.728725	-0.633167	0.222267
05683	-4.826274	-0.491265	-8.803582	0.306550	0.024466	0.234339	-0.136505	-0.728774	-0.633159	0.222182
05684	-4.845385	-0.470767	-8.746883	0.316008	-0.025043	0.192653	-0.136376	-0.728848	-0.633143	0.222064
05685	-4.822466	-0.506289	-8.758342	0.284923	0.002201	0.194304	-0.136227	-0.728913	-0.633140	0.221951
05686	-4.864515	-0.547186	-8.703646	0.232024	-0.056893	0.170263	-0.136120	-0.728972	-0.633132	0.221844
05687	-4.905928	-0.560090	-8.657814	0.208216	-0.114802	0.151401	-0.136052	-0.729007	-0.633129	0.221780
05688	-4.885365	-0.541107	-8.598822	0.219989	-0.128773	0.088542	-0.136047	-0.729007	-0.633139	0.221751
05689	-4.739702	-0.512587	-8.583261	0.260622	-0.013721	0.002187	-0.136096	-0.728976	-0.633155	0.221783
05690	-4.643028	-0.538800	-8.461991	0.226568	0.019720	-0.148238	-0.136255	-0.728901	-0.633186	0.221843
05691	-4.566080	-0.597067	-8.439062	0.173719	0.088437	-0.200958	-0.136396	-0.728820	-0.633204	0.221969
05692	-4.586719	-0.642025	-8.575767	0.147356	0.145084	-0.068396	-0.136499	-0.728796	-0.633177	0.222064
05693	-4.681222	-0.531973	-8.723624	0.267856	0.115465	0.097579	-0.136415	-0.728837	-0.633161	0.222023
05694	-4.882061	-0.522345	-8.820155	0.270643	-0.018434	0.278343	-0.136246	-0.728924	-0.633153	0.221865
05695	-5.001493	-0.517566	-8.827086	0.263859	-0.124969	0.341869	-0.136028	-0.729036	-0.633133	0.221689
05696	-5.015773	-0.495899	-8.859257	0.287794	-0.130801	0.375069	-0.135862	-0.729149	-0.633085	0.221555
05697	-4.913689	-0.481978	-8.710595	0.289994	-0.117418	0.194971	-0.135755	-0.729237	-0.633035	0.221473
05698	-4.832631	-0.486630	-8.620669	0.280003	-0.089928	0.077741	-0.135738	-0.729287	-0.632993	0.221441
05699	-4.794610	-0.489130	-8.531326	0.267983	-0.098003	-0.018319	-0.135799	-0.729297	-0.632962	0.221460
05700	-4.676161	-0.535621	-8.468087	0.224333	-0.014964	-0.127063	-0.135955	-0.729265	-0.632940	0.221531
05701	-4.660398	-0.556705	-8.436843	0.200408	-0.008957	-0.160262	-0.136108	-0.729214	-0.632923	0.221655
05702	-4.645150	-0.577679	-8.405328	0.176209	-0.002921	-0.193456	-0.136318	-0.729156	-0.632907	0.221762
05703	-4.692296	-0.643467	-8.425599	0.109259	-0.019581	-0.147798	-0.136481	-0.729111	-0.632878	0.221890
05704	-4.688112	-0.598904	-8.569795	0.174062	0.047873	-0.027705	-0.136577	-0.729122	-0.632823	0.221954
05705	-4.789629	-0.586052	-8.641146	0.186492	-0.007823	0.082694	-0.136551	-0.729182	-0.632760	0.221952
05706	-4.809687	-0.578527	-8.622795	0.188787	-0.036108	0.075863	-0.136470	-0.729277	-0.632686	0.221900
05707	-4.851210	-0.604786	-8.615696	0.157815	-0.072786	0.091858	-0.136383	-0.729369	-0.632598	0.221900
05708	-4.846777	-0.563627	-8.673785	0.208136	-0.049016	0.137074	-0.136288	-0.729440	-0.632512	0.221972
05709	-4.803870	-0.539581	-8.681517	0.239406	-0.012195	0.121073	-0.136194	-0.729493	-0.632437	0.222068
05710	-4.761044	-0.461328	-8.620027	0.313533	-0.016604	0.040569	-0.136116	-0.729531	-0.632389	0.222127
05711	-4.760877	-0.462930	-8.620034	0.313681	-0.016532	0.040564	-0.136045	-0.729538	-0.632378	0.222182
05712	-4.721210	-0.493698	-8.609120	0.287051	0.017892	0.014204	-0.136039	-0.729514	-0.632389	0.222233
05713	-4.765850	-0.507171	-8.561426	0.263242	-0.040023	-0.004647	-0.136078	-0.729467	-0.632408	0.222310
05714	-4.729978	-0.552122	-8.501131	0.214969	-0.028059	-0.071036	-0.136115	-0.729409	-0.632423	0.222432
05715	-4.689950	-0.568037	-8.537729	0.210262	0.028784	-0.057377	-0.136191	-0.729338	-0.632449	0.222546
05716	-4.736499	-0.676755	-8.588453	0.107062	0.032183	0.017950	-0.136237	-0.729293	-0.632446	0.222673
05717	-4.733146	-0.662137	-8.723692	0.143334	0.098405	0.132848	-0.136248	-0.729277	-0.632418	0.222798
05718	-4.749269	-0.544729	-8.741382	0.260867	0.074985	0.146749	-0.136219	-0.729322	-0.632353	0.222851
05719	-4.769617	-0.551412	-8.761625	0.256279	0.067912	0.174759	-0.136148	-0.729381	-0.632285	0.222898
05720	-4.811430	-0.537834	-8.723852	0.261001	0.011246	0.161102	-0.136061	-0.729416	-0.632244	0.222951
05721	-4.870060	-0.434072	-8.694985	0.354860	-0.070190	0.156155	-0.135977	-0.729436	-0.632204	0.223051
05722	-4.915065	-0.435260	-8.608114	0.337937	-0.149324	0.102475	-0.135961	-0.729429	-0.632184	0.223139
05723	-4.873534	-0.451989	-8.645540	0.333232	-0.092479	0.116130	-0.135900	-0.729392	-0.632212	0.223217
05724	-4.813402	-0.531566	-8.683504	0.268200	-0.009653	0.126257	-0.135874	-0.729343	-0.632268	0.223237
05725	-4.733464	-0.591675	-8.662052	0.215351	0.059048	0.073517	-0.135841	-0.729273	-0.632348	0.223257
05726	-4.655811	-0.666279	-8.591967	0.140578	0.105317	-0.019243	-0.135815	-0.729217	-0.632409	0.223286
05727	-4.572915	-0.671036	-8.589165	0.145345	0.176449	-0.061619	-0.135765	-0.729180	-0.632449	0.223319
05728	-4.649144	-0.612529	-8.698661	0.212694	0.151616	0.065987	-0.135671	-0.729175	-0.632466	0.223347
05729	-4.810772	-0.551940	-8.723334	0.261221	0.012002	0.161095	-0.135564	-0.729194	-0.632458	0.223374
05730	-4.970487	-0.476407	-8.796495	0.331111	-0.105123	0.296237	-0.135527	-0.729211	-0.632436	0.223401
05731	-5.050090	-0.431670	-8.856881	0.377097	-0.152431	0.383814	-0.135536	-0.729200	-0.632414	0.223495
05732	-5.034146	-0.441113	-8.786719	0.360054	-0.167644	0.315782	-0.135626	-0.729143	-0.632412	0.223633
05733	-4.997533	-0.471377	-8.774047	0.333707	-0.133258	0.289407	-0.135743	-0.729032	-0.632453	0.223807
05734	-4.880877	-0.519337	-8.709799	0.290047	-0.050248	0.180641	-0.135899	-0.728915	-0.632498	0.223965
05735	-4.761635	-0.552446	-8.694475	0.268316	0.055195	0.111889	-0.136024	-0.728807	-0.632554	0.224082
05736	-4.641000	-0.585160	-8.680009	0.246305	0.160662	0.043142	-0.136106	-0.728735	-0.632613	0.224103
05737	-4.582414	-0.636468	-8.639548	0.195880	0.200969	-0.016431	-0.136076	-0.728718	-0.632644	0.224086
05738	-4.644717	-0.655079	-8.613391	0.167059	0.135927	-0.007248	-0.135993	-0.728760	-0.632651	0.223981
05739	-4.738653	-0.546766	-8.675632	0.273088	0.062671	0.083871	-0.135810	-0.728835	-0.632657	0.223830
05740	-4.898203	-0.512605	-8.692916	0.292523	-0.078129	0.173817	-0.135619	-0.728940	-0.632640	0.223653
05741	-5.020663	-0.522256	-8.650662	0.264099	-0.207104	0.197364	-0.135479	-0.729006	-0.632629	0.223554
05742	-5.018849	-0.522649	-8.651691	0.263966	-0.206996	0.197369	-0.135448	-0.729020	-0.632624	0.223543
05743	-4.956318	-0.491261	-8.638973	0.299972	-0.163037	0.153341	-0.135501	-0.728977	-0.632629	0.223637
05744	-4.856683	-0.475892	-8.575124	0.316356	-0.105984	0.048108	-0.135643	-0.728894	-0.632642	0.223780
05745	-4.756830	-0.528011	-8.619323	0.282721	0.013559	0.042202	-0.135766	-0.728788	-0.632693	0.223906
05746	-4.700551	-0.579148	-8.577556	0.232017	0.053886	-0.017366	-0.135887	-0.728716	-0.632733	0.223958
05747	-4.642329	-0.643501	-8.575709	0.174426	0.115435	-0.042101	-0.135925	-0.728653	-0.632789	0.223982
05748	-4.722671	-0.639104	-8.665960	0.184158	0.088193	0.075146	-0.135946	-0.728619	-0.632818	0.223996
05749	-4.800959	-0.552851	-8.696812	0.266116	0.020868	0.133072	-0.135908	-0.728616	-0.632833	0.223986
05750	-4.942443	-0.485243	-8.701088	0.319103	-0.111564	0.200197	-0.135862	-0.728636	-0.632830	0.223958
05751	-5.004775	-0.517455	-8.713802	0.283398	-0.155374	0.244222	-0.135820	-0.728656	-0.632816	0.223957
05752	-4.985064	-0.498675	-8.654335	0.295166	-0.169385	0.181372	-0.135822	-0.728670	-0.632791	0.223983
05753	-4.905909	-0.503026	-8.563412	0.285453	-0.141980	0.064122	-0.135875	-0.728673	-0.632763	0.224019
05754	-4.846938	-0.526045	-8.531705	0.263558	-0.100432	0.009735	-0.135961	-0.728665	-0.632738	0.224065
05755	-4.786973	-0.521233	-8.509137	0.270750	-0.057698	-0.039480	-0.136066	-0.728632	-0.632732	0.224125
05756	-4.770349	-0.542268	-8.478268	0.246546	-0.051673	-0.072674	-0.136212	-0.728592	-0.632720	0.224200
05757	-4.756447	-0.632333	-8.467584	0.157836	-0.026872	-0.081399	-0.136337	-0.728543	-0.632704	0.224329
05758	-4.801523	-0.671760	-8.497087	0.119422	-0.042268	-0.030544	-0.136438	-0.728491	-0.632694	0.224463
05759	-4.862980	-0.621051	-8.535857	0.170143	-0.082419	0.029029	-0.136499	-0.728431	-0.632705	0.224590
05760	-4.903303	-0.564971	-8.554773	0.225322	-0.115403	0.060591	-0.136512	-0.728383	-0.632725	0.224680
05761	-4.902654	-0.538548	-8.563617	0.254280	-0.114111	0.065770	-0.136484	-0.728333	-0.632771	0.224733
05762	-4.823164	-0.585089	-8.503158	0.208308	-0.066655	-0.021820	-0.136438	-0.728328	-0.632789	0.224725
05763	-4.741714	-0.644710	-8.482654	0.155453	0.002025	-0.074579	-0.136316	-0.728352	-0.632810	0.224664
05764	-4.779200	-0.616584	-8.494612	0.181824	-0.032182	-0.048198	-0.136154	-0.728397	-0.632811	0.224610
05765	-4.814545	-0.574456	-8.555192	0.230117	-0.043941	0.018196	-0.135991	-0.728440	-0.632807	0.224580
05766	-4.894175	-0.545101	-8.568051	0.254179	-0.113671	0.065777	-0.135890	-0.728460	-0.632801	0.224596
05767	-4.897343	-0.547999	-8.479903	0.239846	-0.157327	-0.009078	-0.135880	-0.728415	-0.632803	0.224740
05768	-4.941867	-0.602854	-8.548305	0.194271	-0.151460	0.076616	-0.135973	-0.728328	-0.632788	0.225010
05769	-4.905906	-0.648020	-8.573959	0.160754	-0.095830	0.085070	-0.136062	-0.728221	-0.632789	0.225301
05770	-4.821291	-0.556322	-8.645617	0.273312	0.001451	0.098232	-0.136133	-0.728121	-0.632803	0.225539
05771	-4.737972	-0.520131	-8.699423	0.328531	0.096264	0.101024	-0.136104	-0.728040	-0.632844	0.225702
05772	-4.738685	-0.522636	-8.698885	0.328398	0.096368	0.101028	-0.136023	-0.728001	-0.632888	0.225755
05773	-4.699587	-0.568259	-8.640074	0.280400	0.108266	0.034626	-0.135890	-0.728017	-0.632904	0.225739
05774	-4.719325	-0.589975	-8.613016	0.253887	0.078756	0.022631	-0.135709	-0.728079	-0.632904	0.225646
05775	-4.821591	-0.649250	-8.618825	0.187065	-0.001789	0.082686	-0.135513	-0.728161	-0.632890	0.225540
05776	-4.918554	-0.597628	-8.662317	0.235202	-0.077422	0.163471	-0.135350	-0.728237	-0.632864	0.225466
05777	-5.017666	-0.532674	-8.665841	0.290785	-0.174340	0.209417	-0.135256	-0.728285	-0.632820	0.225491
05778	-4.997425	-0.582256	-8.714424	0.252246	-0.125811	0.245891	-0.135260	-0.728314	-0.632758	0.225569
05779	-4.918935	-0.600522	-8.661900	0.235366	-0.077174	0.163469	-0.135338	-0.728309	-0.632682	0.225748
05780	-4.842391	-0.659692	-8.638465	0.182229	-0.008471	0.110706	-0.135448	-0.728313	-0.632594	0.225919
05781	-4.699853	-0.631832	-8.621985	0.222843	0.106516	0.024256	-0.135505	-0.728292	-0.632538	0.226108
05782	-4.680153	-0.558389	-8.579880	0.292231	0.094933	-0.028233	-0.135552	-0.728262	-0.632509	0.226255
05783	-4.724406	-0.544869	-8.540600	0.297236	0.038225	-0.041867	-0.135560	-0.728205	-0.632519	0.226407
05784	-4.686823	-0.617136	-8.558583	0.234628	0.092659	-0.038596	-0.135553	-0.728161	-0.632532	0.226518
05785	-4.727075	-0.644396	-8.637964	0.218139	0.099729	0.052270	-0.135438	-0.728121	-0.632592	0.226548
05786	-4.803487	-0.615037	-8.738857	0.256684	0.073751	0.174707	-0.135233	-0.728112	-0.632674	0.226470
05787	-4.963421	-0.583575	-8.755489	0.276417	-0.067033	0.264703	-0.134961	-0.728114	-0.632767	0.226363
05788	-5.040619	-0.542112	-8.730927	0.307646	-0.158006	0.277466	-0.134693	-0.728130	-0.632849	0.226244
05789	-4.911991	-0.549571	-8.729454	0.314716	-0.051375	0.213846	-0.134459	-0.728150	-0.632906	0.226158
05790	-4.828291	-0.610196	-8.709764	0.261576	0.017321	0.161078	-0.134283	-0.728177	-0.632942	0.226075
05791	-4.721107	-0.622669	-8.727759	0.263908	0.116822	0.125474	-0.134090	-0.728214	-0.632968	0.225999
05792	-4.759126	-0.581267	-8.700828	0.297445	0.061367	0.117032	-0.133989	-0.728225	-0.632997	0.225942
05793	-4.877702	-0.508139	-8.772861	0.369941	-0.020187	0.231018	-0.133967	-0.728184	-0.633021	0.226019
05794	-4.920505	-0.507465	-8.773359	0.367502	-0.055604	0.252230	-0.134048	-0.728119	-0.633047	0.226112
05795	-4.948958	-0.569752	-8.685292	0.290819	-0.108851	0.195044	-0.134163	-0.728031	-0.633079	0.226235
05796	-4.994952	-0.582540	-8.636483	0.266736	-0.166753	0.176246	-0.134260	-0.727944	-0.633130	0.226314
05797	-4.954539	-0.597733	-8.673354	0.262027	-0.109899	0.189865	-0.134325	-0.727863	-0.633193	0.226361
05798	-4.917919	-0.682004	-8.643146	0.177770	-0.077950	0.153122	-0.134382	-0.727819	-0.633242	0.226331
05799	-4.854612	-0.703910	-8.700080	0.170630	0.007294	0.173552	-0.134394	-0.727802	-0.633271	0.226295
05800	-4.793336	-0.671974	-8.600808	0.191869	0.007511	0.054666	-0.134356	-0.727851	-0.633253	0.226212
05801	-4.810405	-0.649726	-8.631653	0.216091	0.001679	0.087862	-0.134273	-0.727934	-0.633208	0.226123
05802	-4.890106	-0.605325	-8.606017	0.247319	-0.089300	0.100634	-0.134144	-0.728049	-0.633132	0.226037
05803	-4.950260	-0.596292	-8.589744	0.247592	-0.153135	0.115031	-0.134047	-0.728158	-0.633047	0.225982
05804	-4.990740	-0.594455	-8.591628	0.245155	-0.188547	0.136247	-0.134049	-0.728228	-0.632964	0.225990
05805	-4.972608	-0.616080	-8.561404	0.221230	-0.182572	0.103045	-0.134082	-0.728244	-0.632908	0.226077
05806	-4.953082	-0.582684	-8.549388	0.254643	-0.174121	0.080210	-0.134180	-0.728218	-0.632869	0.226209
05807	-4.834311	-0.642953	-8.524871	0.204086	-0.069949	0.006215	-0.134265	-0.728198	-0.632835	0.226320
05808	-4.757006	-0.687920	-8.462935	0.158111	-0.022528	-0.081392	-0.134329	-0.728200	-0.632795	0.226387
05809	-4.736478	-0.708935	-8.520339	0.148662	0.027200	-0.039758	-0.134353	-0.728201	-0.632771	0.226438
05810	-4.773075	-0.638058	-8.589304	0.225490	0.016723	0.031823	-0.134300	-0.728253	-0.632725	0.226429
05811	-4.769295	-0.583041	-8.608882	0.283256	0.019243	0.042177	-0.134227	-0.728320	-0.632672	0.226404
05812	-4.848861	-0.552432	-8.622026	0.307327	-0.050461	0.089786	-0.134109	-0.728422	-0.632605	0.226333
05813	-4.911454	-0.653741	-8.655601	0.206844	-0.075433	0.158306	-0.133959	-0.728530	-0.632538	0.226262
05814	-4.945629	-0.624345	-8.755932	0.247698	-0.065856	0.259537	-0.133811	-0.728638	-0.632479	0.226166
05815	-4.985150	-0.554819	-8.650867	0.295849	-0.163877	0.181444	-0.133696	-0.728727	-0.632424	0.226101
05816	-4.922685	-0.536979	-8.590969	0.309922	-0.142401	0.097388	-0.133666	-0.728792	-0.632366	0.226073
05817	-4.822170	-0.589190	-8.549090	0.261793	-0.066628	0.016577	-0.133686	-0.728831	-0.632317	0.226074
05818	-4.704357	-0.703807	-8.506565	0.153337	0.035115	-0.067780	-0.133759	-0.728894	-0.632223	0.226087
05819	-4.730118	-0.791548	-8.497680	0.062321	0.024388	-0.055298	-0.133820	-0.728958	-0.632122	0.226129
05820	-4.809980	-0.704188	-8.528308	0.144015	-0.042864	0.002671	-0.133891	-0.729031	-0.632003	0.226183
05821	-4.834966	-0.764533	-8.528558	0.081810	-0.052366	0.020332	-0.133959	-0.729112	-0.631865	0.226269
05822	-4.868959	-0.610149	-8.625175	0.245069	-0.059155	0.107450	-0.133992	-0.729194	-0.631718	0.226395
05823	-4.886819	-0.533645	-8.672955	0.326913	-0.062529	0.151004	-0.133988	-0.729273	-0.631580	0.226527
05824	-4.927697	-0.559859	-8.752022	0.310150	-0.055395	0.241877	-0.133928	-0.729380	-0.631448	0.226587
05825	-4.906218	-0.623159	-8.839885	0.264731	0.014386	0.313150	-0.133822	-0.729488	-0.631342	0.226598
05826	-4.859871	-0.515617	-8.789984	0.367659	0.011137	0.237822	-0.133673	-0.729607	-0.631259	0.226533
05827	-4.818479	-0.518443	-8.702366	0.355633	0.002953	0.141770	-0.133521	-0.729715	-0.631200	0.226440
05828	-4.712272	-0.516068	-8.681095	0.364843	0.081204	0.071317	-0.133416	-0.729796	-0.631177	0.226304
05829	-4.649463	-0.539257	-8.651312	0.343219	0.122681	0.016893	-0.133343	-0.729838	-0.631174	0.226218
05830	-4.670738	-0.558770	-8.623588	0.316710	0.093164	0.004915	-0.133354	-0.729860	-0.631161	0.226178
05831	-4.753925	-0.554271	-8.626195	0.312252	0.022211	0.047347	-0.133448	-0.729859	-0.631134	0.226203
05832	-4.858713	-0.555262	-8.648363	0.302781	-0.055828	0.117811	-0.133582	-0.729852	-0.631098	0.226244
05833	-4.922714	-0.612743	-8.737541	0.252756	-0.057066	0.231518	-0.133715	-0.729851	-0.631048	0.226309
05834	-4.947100	-0.631379	-8.708148	0.226244	-0.086583	0.219541	-0.133795	-0.729898	-0.630968	0.226335
05835	-4.986806	-0.614347	-8.757986	0.245737	-0.099521	0.280760	-0.133808	-0.729965	-0.630895	0.226313
05836	-5.012345	-0.674694	-8.671802	0.168769	-0.152764	0.223604	-0.133786	-0.730099	-0.630775	0.226231
05837	-5.011618	-0.755552	-8.732449	0.096972	-0.112595	0.282893	-0.133656	-0.730335	-0.630582	0.226083
05838	-5.088181	-0.681221	-8.717570	0.157019	-0.202334	0.300871	-0.133496	-0.730642	-0.630323	0.225909
05839	-5.057238	-0.521065	-8.708216	0.313117	-0.210286	0.263915	-0.133408	-0.730983	-0.629993	0.225777
05840	-5.053079	-0.448390	-8.689423	0.377769	-0.229004	0.239456	-0.133462	-0.731319	-0.629623	0.225690
05841	-5.016366	-0.446124	-8.599470	0.365743	-0.237200	0.143406	-0.133689	-0.731558	-0.629267	0.225771
05842	-5.046817	-0.434387	-8.489224	0.353563	-0.309266	0.061790	-0.134093	-0.731723	-0.628870	0.226104
05843	-5.078283	-0.422629	-8.464293	0.356144	-0.337589	0.054987	-0.134600	-0.731821	-0.628483	0.226562
05844	-5.135912	-0.458620	-8.400025	0.303259	-0.396720	0.031040	-0.135140	-0.731871	-0.628126	0.227069
05845	-4.979974	-0.451705	-8.436739	0.334261	-0.232110	-0.013855	-0.135414	-0.731969	-0.627748	0.227631
05846	-4.814295	-0.433961	-8.613227	0.401110	-0.001181	0.056079	-0.135265	-0.732287	-0.627292	0.227958
05847	-4.764446	-0.548749	-8.927418	0.346244	0.204619	0.313422	-0.134534	-0.732958	-0.626773	0.227657
05848	-4.917769	-0.817868	-9.110944	0.092244	0.181770	0.571003	-0.133186	-0.734047	-0.626158	0.226635
05849	-5.084361	-0.738380	-9.118614	0.145675	-0.014522	0.652656	-0.131388	-0.735450	-0.625450	0.225084
05850	-5.200327	-0.533169	-8.955948	0.294554	-0.279204	0.549344	-0.129559	-0.737004	-0.624678	0.223197
05851	-5.485789	-0.424118	-8.852641	0.333765	-0.647083	0.585036	-0.127885	-0.738501	-0.623896	0.221393
05852	-5.663565	-0.429303	-8.703255	0.264347	-0.913310	0.536358	-0.126669	-0.739868	-0.623051	0.219906
05853	-5.727678	-0.412893	-8.551093	0.230941	-1.071827	0.429175	-0.125899	-0.741035	-0.622150	0.218965
05854	-5.631956	-0.435554	-8.547550	0.206598	-1.001934	0.381559	-0.125594	-0.742040	-0.621183	0.218482
05855	-5.403576	-0.454482	-8.841906	0.254542	-0.671686	0.534705	-0.125665	-0.742892	-0.620205	0.218322
05856	-5.189154	-0.569702	-9.141295	0.208595	-0.323792	0.707141	-0.126028	-0.743631	-0.619243	0.218331
05857	-5.051283	-0.616529	-9.179254	0.177255	-0.168755	0.679898	-0.126449	-0.744368	-0.618255	0.218372
05858	-4.919883	-0.648448	-9.090673	0.138304	-0.078739	0.543022	-0.126881	-0.745154	-0.617238	0.218323
05859	-4.953119	-0.465593	-9.062778	0.294537	-0.150600	0.520495	-0.127236	-0.745978	-0.616215	0.218187
05860	-5.091294	-0.224206	-8.904707	0.469801	-0.385666	0.429182	-0.127669	-0.746756	-0.615238	0.218034
05861	-5.233762	-0.196400	-8.646539	0.419610	-0.623492	0.268416	-0.128201	-0.747451	-0.614290	0.218013
05862	-5.248457	-0.208188	-8.545240	0.376186	-0.668393	0.188436	-0.128824	-0.748093	-0.613337	0.218124
05863	-5.130960	-0.177539	-8.542911	0.412054	-0.560583	0.129925	-0.129527	-0.748639	-0.612455	0.218316
05864	-4.966647	-0.256056	-8.477730	0.339437	-0.415019	0.001463	-0.130361	-0.749083	-0.611648	0.218559
05865	-4.730333	-0.439848	-8.417775	0.178106	-0.180899	-0.150184	-0.131181	-0.749477	-0.610886	0.218846
05866	-4.505389	-0.547556	-8.408367	0.098196	0.049847	-0.258273	-0.132014	-0.749872	-0.610125	0.219115
05867	-4.426677	-0.676265	-8.417274	-0.021889	0.165683	-0.279831	-0.132713	-0.750298	-0.609380	0.219310
05868	-4.392556	-0.641767	-8.420463	0.009098	0.202525	-0.295886	-0.133336	-0.750738	-0.608643	0.219473
05869	-4.554290	-0.490892	-8.423583	0.122442	0.044196	-0.225075	-0.133930	-0.751110	-0.607962	0.219725
05870	-4.677354	-0.331661	-8.383800	0.244982	-0.099867	-0.210306	-0.134651	-0.751346	-0.607336	0.220206
05871	-4.708873	-0.232688	-8.297224	0.319508	-0.168314	-0.276383	-0.135526	-0.751446	-0.606737	0.220979
05872	-4.707028	-0.194508	-8.274189	0.352929	-0.159871	-0.299225	-0.136574	-0.751400	-0.606196	0.221973
05873	-4.633843	-0.262549	-8.343312	0.312110	-0.019066	-0.270444	-0.137747	-0.751236	-0.605705	0.223141
05874	-4.488085	-0.381447	-8.350196	0.225169	0.169052	-0.329291	-0.138963	-0.751007	-0.605252	0.224383
05875	-4.243246	-0.546752	-8.364774	0.111857	0.455293	-0.428998	-0.140124	-0.750762	-0.604847	0.225570
05876	-3.982136	-0.589283	-8.382505	0.120683	0.725213	-0.542817	-0.141097	-0.750586	-0.604458	0.226588
05877	-3.794828	-0.595914	-8.416174	0.153977	0.925302	-0.608998	-0.141821	-0.750511	-0.604104	0.227328
05878	-3.732569	-0.629528	-8.310158	0.115172	0.951380	-0.731459	-0.142313	-0.750557	-0.603772	0.227751
05879	-3.901995	-0.580938	-8.320196	0.134918	0.810656	-0.641355	-0.142534	-0.750705	-0.603467	0.227935
05880	-4.086054	-0.523200	-8.313554	0.156839	0.641578	-0.558038	-0.142578	-0.750958	-0.603158	0.227890
05881	-4.292198	-0.323424	-8.270847	0.306284	0.399298	-0.502412	-0.142472	-0.751233	-0.602903	0.227726
05882	-4.471114	-0.279517	-8.306165	0.321041	0.251509	-0.384271	-0.142393	-0.751498	-0.602654	0.227560
05883	-4.614587	-0.295439	-8.408434	0.295226	0.180533	-0.222917	-0.142355	-0.751703	-0.602434	0.227489
05884	-4.664788	-0.371894	-8.467524	0.220858	0.185250	-0.142402	-0.142450	-0.751824	-0.602203	0.227638
05885	-4.756831	-0.416800	-8.535036	0.173270	0.155656	-0.035482	-0.142641	-0.751914	-0.601921	0.227969
05886	-4.747784	-0.453289	-8.540023	0.141907	0.182921	-0.033868	-0.142891	-0.751998	-0.601596	0.228393
05887	-4.735757	-0.448769	-8.515094	0.146790	0.190087	-0.061897	-0.143127	-0.752124	-0.601204	0.228864
05888	-4.706569	-0.480962	-8.499719	0.120159	0.224456	-0.088310	-0.143316	-0.752322	-0.600757	0.229268
05889	-4.607742	-0.472772	-8.523193	0.151290	0.325143	-0.118823	-0.143429	-0.752548	-0.600312	0.229618
05890	-4.598948	-0.349792	-8.520282	0.273573	0.308864	-0.132933	-0.143527	-0.752746	-0.599907	0.229967
05891	-4.633365	-0.235909	-8.469485	0.372178	0.234529	-0.165803	-0.143584	-0.752926	-0.599529	0.230330
05892	-4.684027	-0.085691	-8.409549	0.501755	0.133060	-0.200274	-0.143650	-0.753045	-0.599223	0.230694
05893	-4.746344	-0.046444	-8.485466	0.545329	0.114265	-0.105854	-0.143757	-0.753067	-0.599011	0.231103
05894	-4.898835	-0.052178	-8.542361	0.526411	0.022043	0.020706	-0.143900	-0.752998	-0.598905	0.231516
05895	-4.973634	-0.110009	-8.626881	0.476397	0.020854	0.134414	-0.143996	-0.752860	-0.598906	0.231901
05896	-5.064757	-0.145512	-8.741810	0.450181	0.013824	0.281336	-0.144055	-0.752676	-0.599018	0.232174
05897	-5.082902	-0.272436	-8.739142	0.327935	0.030259	0.295441	-0.144014	-0.752513	-0.599174	0.232325
05898	-5.027945	-0.345119	-8.738165	0.270056	0.091790	0.270641	-0.143818	-0.752423	-0.599357	0.232267
05899	-5.092853	-0.403049	-8.740970	0.205561	0.046789	0.309551	-0.143521	-0.752352	-0.599568	0.232135
05900	-5.205876	-0.350918	-8.717109	0.234504	-0.079678	0.343637	-0.143185	-0.752306	-0.599770	0.231969
05901	-5.318389	-0.284922	-8.654175	0.270897	-0.227470	0.342905	-0.142893	-0.752275	-0.599906	0.231898
05902	-5.482497	-0.282517	-8.609602	0.239919	-0.391894	0.387886	-0.142711	-0.752259	-0.599947	0.231955
05903	-5.496097	-0.222053	-8.610030	0.300129	-0.417767	0.391449	-0.142633	-0.752246	-0.599897	0.232176
05904	-5.505027	-0.265690	-8.549042	0.249542	-0.441424	0.346294	-0.142651	-0.752253	-0.599775	0.232458
