// General information: 
//  MT Manager version: 2021.0.0 
//  XDA version: 2021.0.0 build 5908 rev 109668 built on 2021-04-19
// Device information: 
//  DeviceId: 00B47AA9
//  ProductCode: MTW2-3A7G6
//  Firmware Version: 4.4.0
//  Hardware Version: 2.0.0
// Device settings: 
//  Filter Profile: human(46.1)
//  Option Flags: Orientation Smoother Disabled, Position/Velocity Smoother Disabled, Continuous Zero Rotation Update Disabled, AHS Disabled, ICC Disabled
// Coordinate system: ENU
PacketCounter	Acc_X	Acc_Y	Acc_Z	FreeAcc_E	FreeAcc_N	FreeAcc_U	Quat_q0	Quat_q1	Quat_q2	Quat_q3
04744	-0.024413	0.028536	9.908815	0.011409	-0.008288	0.096188	0.999637	0.000090	0.000202	0.026954
04745	-0.053592	0.035332	9.967019	-0.017744	-0.003236	0.154522	0.999636	0.000091	0.000221	0.026968
04746	-0.024630	0.035021	9.937294	0.011163	-0.001898	0.124692	0.999636	0.000092	0.000211	0.026966
04747	-0.052701	0.028109	9.938545	-0.016722	-0.010332	0.126018	0.999637	0.000092	0.000198	0.026944
04748	-0.017090	0.007077	9.944060	0.019892	-0.029538	0.131326	0.999637	0.000102	0.000201	0.026950
04749	-0.059052	0.055642	9.931785	-0.024680	0.016600	0.119384	0.999637	0.000107	0.000196	0.026948
04750	-0.023134	0.027691	9.908820	0.012571	-0.009333	0.096186	0.999637	0.000105	0.000198	0.026953
04751	-0.023394	0.034289	9.937299	0.012130	-0.002768	0.124691	0.999637	0.000098	0.000203	0.026958
04752	-0.051701	0.027224	9.938553	-0.015750	-0.011219	0.126019	0.999636	0.000092	0.000198	0.026964
04753	-0.022593	0.027017	9.908823	0.013157	-0.009850	0.096185	0.999636	0.000107	0.000197	0.026972
04754	-0.023153	0.040813	9.965780	0.012075	0.003441	0.153196	0.999636	0.000117	0.000198	0.026969
04755	-0.057584	0.047783	9.903318	-0.022898	0.008797	0.090883	0.999636	0.000105	0.000199	0.026983
04756	-0.015671	0.005742	9.944064	0.021467	-0.030922	0.131319	0.999636	0.000102	0.000208	0.026968
04757	-0.050562	0.019558	9.910080	-0.014143	-0.018837	0.097513	0.999636	0.000101	0.000209	0.026974
04758	-0.021972	0.026163	9.908827	0.014117	-0.010717	0.096183	0.999636	0.000104	0.000215	0.026970
04759	-0.051080	0.032954	9.967040	-0.015032	-0.005734	0.154525	0.999636	0.000103	0.000215	0.026966
04760	-0.022072	0.032870	9.937307	0.013865	-0.004337	0.124688	0.999636	0.000123	0.000219	0.026964
04761	-0.043172	-0.008490	9.916840	-0.004973	-0.046816	0.104139	0.999637	0.000115	0.000223	0.026959
04762	-0.021840	0.032655	9.937308	0.014252	-0.004677	0.124687	0.999637	0.000125	0.000225	0.026956
04763	-0.050151	0.025657	9.938565	-0.013616	-0.013166	0.126019	0.999636	0.000113	0.000226	0.026970
04764	-0.050001	0.025444	9.938566	-0.013422	-0.013345	0.126019	0.999636	0.000122	0.000228	0.026977
04765	-0.021383	0.032134	9.937311	0.014831	-0.005200	0.124686	0.999636	0.000121	0.000230	0.026983
04766	-0.056263	0.045973	9.903334	-0.020800	0.006844	0.090889	0.999636	0.000124	0.000236	0.026979
04767	-0.049247	0.018149	9.910089	-0.012196	-0.020601	0.097512	0.999636	0.000123	0.000237	0.026984
04768	-0.027906	0.059152	9.930561	0.006995	0.021549	0.118063	0.999635	0.000111	0.000237	0.026999
04769	-0.020396	0.024487	9.908834	0.016249	-0.012614	0.096177	0.999636	0.000126	0.000234	0.026988
04770	-0.056159	0.052122	9.931820	-0.020676	0.012861	0.119399	0.999636	0.000122	0.000256	0.026991
04771	-0.020303	0.024201	9.908835	0.016637	-0.012955	0.096176	0.999636	0.000122	0.000243	0.026969
04772	-0.049307	0.030945	9.967056	-0.012506	-0.008034	0.154527	0.999636	0.000125	0.000252	0.026984
04773	-0.055749	0.051577	9.931826	-0.020103	0.012327	0.119401	0.999636	0.000124	0.000252	0.026980
04774	-0.019744	0.023744	9.908838	0.017217	-0.013480	0.096174	0.999636	0.000129	0.000247	0.026977
04775	0.009006	0.030381	9.907579	0.045458	-0.005298	0.094837	0.999636	0.000124	0.000241	0.026974
04776	-0.048080	0.023313	9.938581	-0.011086	-0.015475	0.126019	0.999636	0.000123	0.000243	0.026989
04777	-0.019319	0.030012	9.937322	0.017153	-0.007279	0.124681	0.999635	0.000129	0.000229	0.026997
04778	-0.040588	-0.004736	9.945331	-0.002245	-0.043084	0.132634	0.999636	0.000115	0.000237	0.026982
04779	-0.047445	0.022690	9.938586	-0.010501	-0.015995	0.126019	0.999636	0.000124	0.000239	0.026979
04780	-0.018444	0.022583	9.908843	0.018380	-0.014513	0.096171	0.999636	0.000123	0.000240	0.026985
04781	-0.040110	-0.005214	9.945333	-0.001650	-0.043604	0.132632	0.999636	0.000128	0.000235	0.026982
04782	-0.017948	0.022241	9.908844	0.018766	-0.014856	0.096169	0.999636	0.000122	0.000230	0.026988
04783	-0.018163	0.028883	9.937327	0.018312	-0.008315	0.124678	0.999636	0.000126	0.000236	0.026984
04784	-0.039406	-0.005774	9.945336	-0.001058	-0.044135	0.132630	0.999636	0.000126	0.000225	0.026971
04785	-0.053412	0.056226	9.960334	-0.018466	0.016916	0.147917	0.999636	0.000131	0.000222	0.026988
04786	-0.017496	0.028332	9.937330	0.018889	-0.008830	0.124677	0.999636	0.000117	0.000232	0.026991
04787	-0.017193	0.028030	9.937332	0.019077	-0.009001	0.124676	0.999636	0.000119	0.000210	0.026980
04788	-0.051964	0.041858	9.903376	-0.016603	0.002955	0.090899	0.999636	0.000127	0.000223	0.026985
04789	-0.016937	0.027875	9.937332	0.019461	-0.009348	0.124675	0.999636	0.000130	0.000230	0.026991
04790	-0.016387	0.020820	9.908850	0.020303	-0.016234	0.096164	0.999635	0.000124	0.000225	0.026997
04791	-0.045002	0.020522	9.938602	-0.008184	-0.018111	0.126017	0.999635	0.000123	0.000226	0.027002
04792	-0.030242	0.082662	9.923858	0.003032	0.044625	0.111461	0.999635	0.000140	0.000213	0.027002
04793	-0.044533	0.020386	9.938604	-0.007794	-0.018466	0.126017	0.999635	0.000131	0.000229	0.027005
04794	-0.044409	0.020222	9.938605	-0.007600	-0.018644	0.126017	0.999636	0.000142	0.000219	0.026994
04795	-0.008772	-0.000722	9.944074	0.029138	-0.037627	0.131276	0.999635	0.000129	0.000229	0.026998
04796	-0.022654	0.054176	9.930603	0.012300	0.016684	0.118067	0.999636	0.000123	0.000223	0.026994
04797	-0.043459	0.012531	9.910125	-0.006361	-0.025881	0.097505	0.999635	0.000122	0.000224	0.027000
04798	-0.044069	0.026003	9.967094	-0.007469	-0.012645	0.154528	0.999635	0.000121	0.000224	0.026996
04799	-0.021686	0.046663	9.902123	0.013523	0.009454	0.089556	0.999636	0.000119	0.000225	0.026993
04800	-0.035797	-0.015614	9.916861	0.002759	-0.053647	0.104105	0.999636	0.000130	0.000216	0.026991
04801	-0.050136	0.046328	9.931881	-0.014769	0.007357	0.119415	0.999636	0.000121	0.000232	0.026995
04802	-0.043253	0.025277	9.967100	-0.006691	-0.013353	0.154527	0.999636	0.000123	0.000209	0.026984
04803	-0.042392	0.018265	9.938617	-0.005845	-0.020242	0.126015	0.999635	0.000124	0.000203	0.027020
04804	-0.042195	0.018114	9.938619	-0.005650	-0.020419	0.126015	0.999635	0.000127	0.000208	0.027006
04805	-0.020349	0.045729	9.902131	0.014659	0.008405	0.089555	0.999635	0.000131	0.000215	0.027012
04806	-0.042018	0.017833	9.938620	-0.005263	-0.020772	0.126014	0.999635	0.000130	0.000215	0.027008
04807	-0.041859	0.017729	9.938621	-0.005064	-0.020948	0.126014	0.999635	0.000139	0.000218	0.027015
04808	-0.048802	0.045192	9.931893	-0.013430	0.006105	0.119418	0.999635	0.000132	0.000223	0.027010
04809	-0.013156	0.024416	9.937347	0.023334	-0.012821	0.124663	0.999635	0.000147	0.000221	0.027018
04810	-0.041880	0.024132	9.967109	-0.005135	-0.014782	0.154526	0.999635	0.000134	0.000231	0.027022
04811	-0.012966	0.024036	9.937348	0.023725	-0.013167	0.124662	0.999635	0.000143	0.000231	0.027000
04812	-0.041224	0.016969	9.938625	-0.004087	-0.021835	0.126012	0.999635	0.000142	0.000233	0.027015
04813	-0.047796	0.037487	9.903414	-0.011816	-0.001479	0.090906	0.999635	0.000134	0.000239	0.027020
04814	-0.012625	0.023447	9.937350	0.024307	-0.013682	0.124659	0.999635	0.000138	0.000245	0.027016
04815	-0.040927	0.016310	9.938627	-0.003500	-0.022360	0.126012	0.999635	0.000137	0.000245	0.027013
04816	-0.026444	0.078382	9.923904	0.007515	0.040417	0.111476	0.999635	0.000142	0.000240	0.027010
04817	-0.040629	0.015936	9.938629	-0.003115	-0.022713	0.126011	0.999635	0.000133	0.000256	0.027013
04818	-0.047219	0.036560	9.903420	-0.010860	-0.002365	0.090907	0.999635	0.000144	0.000249	0.027021
04819	-0.041142	0.029222	9.995604	-0.004041	-0.009679	0.183039	0.999635	0.000130	0.000256	0.027006
04820	-0.018422	0.043028	9.902146	0.017520	0.005803	0.089553	0.999635	0.000131	0.000247	0.027013
04821	-0.039815	0.014999	9.938634	-0.002334	-0.023421	0.126009	0.999635	0.000125	0.000242	0.027019
04822	-0.011117	0.021805	9.937356	0.025856	-0.015068	0.124654	0.999635	0.000130	0.000237	0.027016
04823	-0.046028	0.035439	9.903430	-0.009900	-0.003250	0.090908	0.999635	0.000129	0.000239	0.027022
04824	-0.039601	0.021207	9.967124	-0.002407	-0.017259	0.154523	0.999635	0.000121	0.000244	0.027027
04825	-0.017732	0.048904	9.930640	0.017814	0.011629	0.118066	0.999635	0.000137	0.000240	0.027016
04826	-0.038905	0.014114	9.938638	-0.001359	-0.024303	0.126008	0.999635	0.000123	0.000250	0.027019
04827	-0.024654	0.076136	9.923926	0.009561	0.038496	0.111482	0.999635	0.000133	0.000250	0.026997
04828	-0.010161	0.020767	9.937359	0.027017	-0.016101	0.124649	0.999635	0.000127	0.000245	0.027003
04829	-0.045485	0.041094	9.931927	-0.009412	0.002379	0.119424	0.999635	0.000126	0.000246	0.027009
04830	-0.038223	0.013213	9.938642	-0.000578	-0.025008	0.126006	0.999635	0.000119	0.000250	0.027005
04831	-0.045701	0.047421	9.960418	-0.009688	0.008716	0.147940	0.999635	0.000122	0.000258	0.027010
04832	-0.030879	-0.014997	9.945356	0.008463	-0.052563	0.132585	0.999635	0.000099	0.000255	0.027015
04833	-0.016519	0.047006	9.930651	0.019337	0.010245	0.118065	0.999635	0.000115	0.000251	0.027003
04834	-0.037249	0.005371	9.910157	0.000865	-0.032393	0.097488	0.999635	0.000101	0.000261	0.027007
04835	-0.044720	0.039574	9.931936	-0.008265	0.001328	0.119425	0.999636	0.000110	0.000261	0.026985
04836	-0.044493	0.039423	9.931938	-0.008073	0.001150	0.119425	0.999635	0.000105	0.000257	0.027000
04837	-0.043927	0.032394	9.903450	-0.007218	-0.005709	0.090909	0.999635	0.000108	0.000263	0.026996
04838	-0.037419	0.018323	9.967139	0.000317	-0.019721	0.154519	0.999635	0.000113	0.000260	0.027003
04839	-0.015514	0.046084	9.930657	0.020479	0.009212	0.118064	0.999635	0.000118	0.000255	0.027001
04840	-0.036980	0.018023	9.967141	0.000709	-0.020074	0.154518	0.999635	0.000110	0.000261	0.027006
04841	-0.036402	0.011103	9.938652	0.001569	-0.026933	0.126001	0.999636	0.000126	0.000257	0.026995
04842	-0.015179	0.045711	9.930660	0.021052	0.008690	0.118063	0.999635	0.000122	0.000279	0.026998
04843	-0.043515	0.038410	9.931946	-0.006727	-0.000087	0.119426	0.999636	0.000122	0.000269	0.026996
04844	-0.036038	0.010614	9.938654	0.002157	-0.027460	0.125999	0.999636	0.000121	0.000269	0.026992
04845	-0.007351	0.017507	9.937368	0.030320	-0.019025	0.124634	0.999636	0.000122	0.000258	0.026990
04846	-0.035062	0.003515	9.910166	0.003214	-0.034494	0.097480	0.999636	0.000131	0.000260	0.026987
04847	-0.042513	0.037822	9.931953	-0.005960	-0.000798	0.119427	0.999636	0.000130	0.000261	0.026993
04848	-0.042399	0.037551	9.931954	-0.005768	-0.000976	0.119427	0.999635	0.000123	0.000267	0.026998
04849	-0.013741	0.044457	9.930667	0.022387	0.007480	0.118061	0.999635	0.000129	0.000253	0.027006
04850	-0.041915	0.037096	9.931958	-0.005385	-0.001326	0.119427	0.999635	0.000115	0.000263	0.027010
04851	-0.035022	0.015983	9.967151	0.002857	-0.022014	0.154514	0.999635	0.000114	0.000262	0.026997
04852	-0.041246	0.029852	9.903470	-0.004332	-0.008355	0.090909	0.999635	0.000124	0.000265	0.027004
04853	-0.041516	0.036666	9.931961	-0.005912	-0.001136	0.119427	0.999638	0.000096	0.000212	0.026907
04854	-0.041466	0.036549	9.931962	-0.005721	-0.001313	0.119427	0.999638	0.000093	0.000223	0.026912
04855	-0.034597	0.015545	9.967154	0.002528	-0.021998	0.154514	0.999638	0.000091	0.000225	0.026918
04856	-0.041102	0.036188	9.931965	-0.005336	-0.001665	0.119427	0.999637	0.000098	0.000211	0.026926
04857	-0.005298	0.015522	9.937372	0.031546	-0.020368	0.124628	0.999638	0.000089	0.000225	0.026911
04858	-0.040795	0.035707	9.931968	-0.004953	-0.002014	0.119427	0.999637	0.000089	0.000216	0.026927
04859	-0.040036	0.028823	9.903478	-0.004093	-0.008859	0.090908	0.999637	0.000100	0.000208	0.026935
04860	-0.040178	0.035541	9.931971	-0.004573	-0.002363	0.119427	0.999638	0.000099	0.000207	0.026922
04861	-0.039581	0.028525	9.903480	-0.003709	-0.009209	0.090908	0.999637	0.000098	0.000208	0.026928
04862	-0.032677	0.007524	9.938668	0.004562	-0.029891	0.125991	0.999637	0.000095	0.000219	0.026923
04863	-0.039806	0.034837	9.931975	-0.003997	-0.002888	0.119427	0.999637	0.000089	0.000214	0.026929
04864	-0.039058	0.027897	9.903484	-0.003132	-0.009734	0.090908	0.999638	0.000100	0.000204	0.026918
04865	-0.039352	0.034538	9.931978	-0.003613	-0.003235	0.119427	0.999638	0.000091	0.000220	0.026922
04866	-0.039111	0.034282	9.931980	-0.003422	-0.003412	0.119427	0.999638	0.000093	0.000198	0.026911
04867	-0.038835	0.034086	9.931982	-0.003229	-0.003586	0.119427	0.999637	0.000090	0.000211	0.026926
04868	-0.039148	0.040616	9.960476	-0.003712	0.002906	0.147947	0.999637	0.000084	0.000205	0.026932
04869	-0.010171	0.040673	9.930688	0.025098	0.004759	0.118056	0.999637	0.000077	0.000210	0.026927
04870	-0.038410	0.033228	9.931986	-0.002653	-0.004113	0.119427	0.999637	0.000076	0.000210	0.026923
04871	-0.038239	0.033018	9.931987	-0.002460	-0.004286	0.119427	0.999637	0.000074	0.000211	0.026930
04872	-0.038125	0.032748	9.931989	-0.002268	-0.004463	0.119427	0.999637	0.000067	0.000217	0.026934
04873	-0.037932	0.032539	9.931990	-0.002075	-0.004637	0.119427	0.999638	0.000072	0.000210	0.026913
04874	-0.037483	0.032417	9.931992	-0.001883	-0.004814	0.119427	0.999638	0.000074	0.000190	0.026921
04875	-0.058715	0.004246	9.968473	-0.021505	-0.034204	0.155877	0.999637	0.000071	0.000203	0.026936
04876	-0.037174	0.031997	9.931995	-0.001499	-0.005161	0.119427	0.999637	0.000070	0.000203	0.026932
04877	-0.037367	0.038643	9.960491	-0.001987	0.001325	0.147948	0.999637	0.000075	0.000198	0.026929
04878	-0.036300	0.024903	9.903503	-0.000440	-0.012175	0.090906	0.999637	0.000073	0.000198	0.026926
04879	-0.036549	0.031489	9.931999	-0.000927	-0.005687	0.119427	0.999637	0.000072	0.000199	0.026932
04880	-0.036697	0.038195	9.960495	-0.001413	0.000798	0.147948	0.999638	0.000083	0.000189	0.026921
04881	-0.028830	0.003670	9.938682	0.008278	-0.033196	0.125978	0.999637	0.000074	0.000205	0.026924
04882	-0.035935	0.030982	9.932003	-0.000351	-0.006214	0.119427	0.999637	0.000076	0.000185	0.026933
04883	-0.035654	0.030678	9.932005	-0.000158	-0.006389	0.119427	0.999637	0.000063	0.000195	0.026937
04884	-0.036011	0.037247	9.960501	-0.000645	0.000093	0.147949	0.999637	0.000072	0.000197	0.026934
04885	-0.028038	0.002848	9.938685	0.009060	-0.033895	0.125975	0.999637	0.000077	0.000192	0.026932
04886	-0.063991	0.029865	9.961807	-0.028187	-0.009016	0.149326	0.999637	0.000081	0.000199	0.026928
04887	-0.034709	0.023299	9.903512	0.001288	-0.013747	0.090904	0.999637	0.000073	0.000203	0.026923
04888	-0.035113	0.029806	9.932009	0.000800	-0.007267	0.119426	0.999637	0.000070	0.000215	0.026928
04889	-0.035097	0.029630	9.932010	0.000994	-0.007441	0.119426	0.999638	0.000074	0.000220	0.026915
04890	-0.006925	0.043416	9.959203	0.028424	0.007809	0.146569	0.999638	0.000063	0.000209	0.026921
04891	-0.034574	0.029071	9.932013	0.001380	-0.007787	0.119425	0.999637	0.000062	0.000210	0.026927
04892	-0.006015	0.036182	9.930709	0.029489	0.000816	0.118045	0.999637	0.000067	0.000206	0.026934
04893	-0.033726	0.021987	9.903519	0.002449	-0.014786	0.090902	0.999637	0.000065	0.000206	0.026931
04894	-0.033935	0.028625	9.932017	0.001958	-0.008309	0.119425	0.999637	0.000070	0.000203	0.026938
04895	-0.004943	0.028961	9.902213	0.030746	-0.006345	0.089520	0.999637	0.000069	0.000203	0.026935
04896	-0.054455	-0.006718	9.939998	-0.016695	-0.044595	0.127348	0.999637	0.000053	0.000197	0.026950
04897	-0.032871	0.021014	9.903524	0.003221	-0.015477	0.090901	0.999637	0.000056	0.000203	0.026936
04898	-0.012198	0.062580	9.924044	0.021757	0.026940	0.111501	0.999638	0.000065	0.000202	0.026915
04899	-0.061659	0.027152	9.961830	-0.025671	-0.011334	0.149331	0.999637	0.000066	0.000194	0.026932
04900	-0.004319	0.034689	9.930715	0.031022	-0.000547	0.118041	0.999637	0.000059	0.000198	0.026927
04901	-0.068235	0.047450	9.926668	-0.033490	0.008795	0.114268	0.999637	0.000064	0.000195	0.026934
04902	-0.032288	0.027042	9.932027	0.003502	-0.009707	0.119423	0.999637	0.000062	0.000196	0.026940
04903	-0.032173	0.026772	9.932028	0.003694	-0.009882	0.119423	0.999637	0.000055	0.000202	0.026945
04904	-0.031941	0.026517	9.932029	0.003887	-0.010057	0.119423	0.999637	0.000055	0.000191	0.026943
04905	0.004028	0.006126	9.937383	0.040888	-0.028541	0.124574	0.999637	0.000059	0.000198	0.026949
04906	-0.059509	0.012011	9.904844	-0.022942	-0.025884	0.092283	0.999637	0.000047	0.000196	0.026945
04907	-0.031438	0.025890	9.932032	0.004465	-0.010580	0.119422	0.999636	0.000056	0.000200	0.026961
04908	-0.059665	0.018411	9.933345	-0.023240	-0.019592	0.120808	0.999637	0.000049	0.000204	0.026947
04909	-0.031179	0.025460	9.932034	0.004851	-0.010932	0.119421	0.999637	0.000048	0.000204	0.026944
04910	-0.038929	0.059619	9.953873	-0.004570	0.022664	0.141414	0.999637	0.000051	0.000211	0.026950
04911	-0.059352	0.017854	9.933348	-0.022656	-0.020129	0.120808	0.999637	0.000054	0.000217	0.026946
04912	-0.038327	0.052457	9.925377	-0.003502	0.015670	0.112889	0.999637	0.000042	0.000217	0.026951
04913	-0.045317	0.072943	9.890219	-0.011558	0.035979	0.077832	0.999637	0.000044	0.000234	0.026947
04914	-0.023738	0.003700	9.967197	0.014070	-0.032290	0.154476	0.999637	0.000045	0.000223	0.026945
04915	-0.030131	0.017489	9.903539	0.006699	-0.018620	0.090893	0.999637	0.000042	0.000234	0.026940
04916	-0.066225	0.044292	9.926696	-0.030633	0.006101	0.114280	0.999637	0.000047	0.000229	0.026937
04917	-0.058109	0.009829	9.904855	-0.020798	-0.027834	0.092282	0.999637	0.000045	0.000229	0.026934
04918	-0.022198	-0.010518	9.910198	0.016237	-0.046259	0.097420	0.999637	0.000049	0.000236	0.026930
04919	-0.058734	0.023040	9.961858	-0.021788	-0.014915	0.149335	0.999637	0.000048	0.000236	0.026927
04920	-0.036759	0.044142	9.896888	-0.001291	0.007630	0.084365	0.999637	0.000042	0.000230	0.026924
04921	-0.037027	0.050703	9.925391	-0.001792	0.014094	0.112892	0.999637	0.000045	0.000237	0.026930
04922	-0.029893	0.029773	9.960547	0.006676	-0.006563	0.147944	0.999637	0.000044	0.000238	0.026936
04923	-0.037164	0.056992	9.953895	-0.002107	0.020378	0.141420	0.999638	0.000032	0.000234	0.026913
04924	-0.028511	0.015730	9.903547	0.008443	-0.020182	0.090889	0.999638	0.000043	0.000226	0.026921
04925	-0.056902	0.015042	9.933367	-0.019931	-0.022615	0.120809	0.999638	0.000044	0.000216	0.026919
04926	-0.036231	0.056527	9.953902	-0.001536	0.019853	0.141421	0.999637	0.000043	0.000217	0.026925
04927	-0.027694	0.015256	9.903550	0.009025	-0.020704	0.090887	0.999638	0.000042	0.000217	0.026922
04928	-0.027451	0.015003	9.903551	0.009219	-0.020878	0.090887	0.999638	0.000036	0.000211	0.026919
04929	-0.035661	0.055960	9.953907	-0.000967	0.019325	0.141422	0.999638	0.000050	0.000219	0.026916
04930	-0.027509	0.021627	9.932054	0.008914	-0.014591	0.119414	0.999638	0.000050	0.000208	0.026914
04931	-0.055641	0.014015	9.933376	-0.018761	-0.023686	0.120808	0.999638	0.000048	0.000219	0.026909
04932	-0.027170	0.021318	9.932056	0.009304	-0.014941	0.119413	0.999638	0.000059	0.000211	0.026918
04933	-0.034468	0.048696	9.925410	0.000487	0.011991	0.112895	0.999638	0.000051	0.000216	0.026913
04934	-0.026826	0.020903	9.932058	0.009689	-0.015288	0.119412	0.999638	0.000050	0.000217	0.026919
04935	-0.026594	0.020649	9.932059	0.009880	-0.015460	0.119412	0.999638	0.000044	0.000211	0.026916
04936	-0.033933	0.047857	9.925416	0.001054	0.011467	0.112895	0.999638	0.000037	0.000216	0.026921
04937	-0.054639	0.012686	9.933383	-0.017597	-0.024750	0.120808	0.999638	0.000040	0.000221	0.026908
04938	-0.026207	0.019952	9.932061	0.010460	-0.015983	0.119410	0.999638	0.000039	0.000222	0.026914
04939	-0.061474	0.033179	9.898239	-0.025543	-0.004631	0.085764	0.999637	0.000048	0.000226	0.026931
04940	-0.025423	0.012944	9.903559	0.011543	-0.022954	0.090880	0.999637	0.000043	0.000220	0.026928
04941	-0.053943	0.012116	9.933388	-0.016822	-0.025458	0.120808	0.999637	0.000052	0.000222	0.026925
04942	-0.033078	0.047020	9.925423	0.002190	0.010419	0.112896	0.999638	0.000056	0.000228	0.026921
04943	-0.025358	0.019295	9.932065	0.011427	-0.016847	0.119408	0.999637	0.000050	0.000223	0.026928
04944	-0.032576	0.046571	9.925427	0.002571	0.010072	0.112896	0.999637	0.000050	0.000212	0.026926
04945	-0.032346	0.046531	9.925428	0.002765	0.009895	0.112897	0.999638	0.000065	0.000218	0.026904
04946	-0.024667	0.018963	9.932067	0.012011	-0.017371	0.119406	0.999638	0.000063	0.000220	0.026911
04947	-0.052689	0.011306	9.933396	-0.015645	-0.026522	0.120807	0.999638	0.000064	0.000209	0.026909
04948	-0.059956	0.038515	9.926760	-0.024514	0.000389	0.114298	0.999638	0.000052	0.000207	0.026904
04949	-0.044671	-0.016780	9.940035	-0.006187	-0.053963	0.127314	0.999638	0.000055	0.000214	0.026901
04950	-0.059266	0.031325	9.898259	-0.023430	-0.006586	0.085769	0.999638	0.000054	0.000215	0.026907
04951	-0.023654	0.017835	9.932072	0.012983	-0.018235	0.119403	0.999638	0.000053	0.000214	0.026894
04952	-0.031493	0.051889	9.953943	0.003398	0.015293	0.141428	0.999638	0.000052	0.000214	0.026891
04953	-0.051641	0.009982	9.933402	-0.014473	-0.027582	0.120806	0.999638	0.000055	0.000221	0.026897
04954	-0.030836	0.044707	9.925441	0.004481	0.008326	0.112897	0.999638	0.000043	0.000221	0.026912
04955	-0.001703	0.045164	9.895608	0.033216	0.010541	0.082962	0.999638	0.000045	0.000199	0.026902
04956	-0.022958	0.023531	9.960582	0.013253	-0.012489	0.147932	0.999638	0.000049	0.000207	0.026908
04957	-0.058353	0.036672	9.926777	-0.022783	-0.001212	0.114302	0.999638	0.000052	0.000213	0.026905
04958	-0.022242	0.016521	9.932077	0.014347	-0.019451	0.119399	0.999638	0.000052	0.000204	0.026912
04959	-0.058277	0.043132	9.955287	-0.023106	0.005046	0.142835	0.999638	0.000057	0.000200	0.026920
04960	-0.021717	0.016349	9.932079	0.014732	-0.019798	0.119398	0.999638	0.000067	0.000201	0.026908
04961	-0.021484	0.016096	9.932080	0.014924	-0.019967	0.119397	0.999637	0.000050	0.000195	0.026923
04962	-0.020930	0.009081	9.903574	0.015822	-0.026754	0.090864	0.999637	0.000058	0.000209	0.026928
04963	-0.028873	0.043333	9.925453	0.006191	0.006759	0.112898	0.999637	0.000069	0.000201	0.026937
04964	-0.028754	0.043172	9.925454	0.006381	0.006584	0.112898	0.999638	0.000060	0.000215	0.026921
04965	-0.021093	0.015393	9.932082	0.015697	-0.020665	0.119395	0.999637	0.000059	0.000216	0.026928
04966	-0.029007	0.049427	9.953963	0.006058	0.012841	0.141430	0.999637	0.000058	0.000216	0.026925
04967	-0.056611	0.035000	9.926793	-0.020872	-0.002990	0.114306	0.999637	0.000063	0.000212	0.026923
04968	-0.048351	0.000658	9.904912	-0.010840	-0.036845	0.092269	0.999638	0.000066	0.000218	0.026919
04969	-0.027883	0.042243	9.925460	0.007336	0.005710	0.112898	0.999638	0.000063	0.000201	0.026917
04970	-0.048178	0.007070	9.933422	-0.011156	-0.030592	0.120801	0.999638	0.000072	0.000203	0.026915
04971	-0.027920	0.048632	9.953970	0.007008	0.011971	0.141431	0.999638	0.000058	0.000211	0.026900
04972	-0.027782	0.048256	9.953972	0.007199	0.011795	0.141431	0.999638	0.000053	0.000207	0.026916
04973	-0.027065	0.041322	9.925466	0.008093	0.005015	0.112897	0.999638	0.000058	0.000202	0.026913
04974	-0.026332	0.034497	9.896960	0.008991	-0.001764	0.084363	0.999638	0.000063	0.000197	0.026902
04975	-0.055727	0.047002	9.983823	-0.020757	0.008799	0.171377	0.999638	0.000062	0.000197	0.026899
04976	-0.026349	0.040885	9.925470	0.008667	0.004494	0.112897	0.999639	0.000061	0.000195	0.026876
04977	-0.047263	0.012401	9.961938	-0.010497	-0.025222	0.149333	0.999639	0.000064	0.000202	0.026883
04978	-0.017890	0.006354	9.903582	0.018930	-0.029515	0.090851	0.999638	0.000065	0.000194	0.026900
04979	-0.053950	0.032924	9.926815	-0.018574	-0.005121	0.114310	0.999638	0.000076	0.000186	0.026908
04980	-0.054168	0.039511	9.955325	-0.019091	0.001302	0.142845	0.999639	0.000068	0.000188	0.026885
04981	-0.081438	0.018225	9.899651	-0.045293	-0.021176	0.087190	0.999638	0.000072	0.000196	0.026891
04982	-0.025675	0.046773	9.953985	0.009102	0.010051	0.141431	0.999638	0.000077	0.000192	0.026898
04983	-0.052814	0.025560	9.898312	-0.017097	-0.012431	0.085776	0.999638	0.000076	0.000192	0.026895
04984	-0.045855	0.011446	9.961945	-0.009132	-0.026461	0.149331	0.999638	0.000085	0.000194	0.026893
04985	-0.032430	0.067111	9.918865	0.001185	0.029979	0.106412	0.999638	0.000078	0.000199	0.026888
04986	-0.016887	0.011885	9.932094	0.019773	-0.024294	0.119379	0.999638	0.000077	0.000200	0.026895
04987	-0.052772	0.031532	9.926826	-0.017039	-0.006537	0.114312	0.999639	0.000074	0.000208	0.026871
04988	-0.052607	0.031429	9.926827	-0.016847	-0.006715	0.114312	0.999638	0.000085	0.000202	0.026889
04989	-0.044579	0.003924	9.933441	-0.007443	-0.033937	0.120794	0.999639	0.000090	0.000196	0.026878
04990	-0.023764	0.038934	9.925484	0.011339	0.002063	0.112895	0.999639	0.000095	0.000192	0.026876
04991	-0.051839	0.031102	9.926832	-0.016267	-0.007246	0.114313	0.999639	0.000088	0.000197	0.026872
04992	-0.015726	0.010987	9.932097	0.020945	-0.025326	0.119374	0.999639	0.000086	0.000198	0.026878
04993	-0.051035	0.023844	9.898326	-0.015173	-0.014189	0.085777	0.999639	0.000080	0.000192	0.026884
04994	-0.023603	0.044776	9.953999	0.011389	0.007967	0.141431	0.999638	0.000088	0.000206	0.026890
04995	-0.051266	0.030413	9.926837	-0.015505	-0.007951	0.114313	0.999638	0.000100	0.000198	0.026898
04996	-0.051135	0.030249	9.926838	-0.015312	-0.008129	0.114314	0.999639	0.000091	0.000211	0.026874
04997	-0.022789	0.037674	9.925492	0.012677	0.000853	0.112894	0.999639	0.000096	0.000207	0.026872
04998	-0.015220	0.016741	9.960610	0.021398	-0.019767	0.147906	0.999639	0.000090	0.000202	0.026879
04999	-0.050487	0.029634	9.926843	-0.014730	-0.008654	0.114314	0.999639	0.000095	0.000198	0.026877
05000	-0.014674	0.016357	9.960612	0.021787	-0.020107	0.147904	0.999638	0.000089	0.000194	0.026893
05001	-0.050168	0.029213	9.926846	-0.014341	-0.009005	0.114314	0.999638	0.000090	0.000211	0.026888
05002	-0.050168	0.029142	9.926846	-0.014149	-0.009183	0.114314	0.999638	0.000100	0.000213	0.026886
05003	-0.049802	0.029068	9.926849	-0.013957	-0.009352	0.114314	0.999638	0.000102	0.000193	0.026895
05004	-0.021169	0.036561	9.925499	0.014019	-0.000346	0.112892	0.999639	0.000101	0.000192	0.026882
05005	-0.021502	0.043125	9.954011	0.013492	0.006069	0.141430	0.999639	0.000104	0.000198	0.026879
05006	-0.020929	0.036241	9.925501	0.014400	-0.000692	0.112891	0.999639	0.000103	0.000199	0.026885
05007	-0.056279	0.049148	9.891742	-0.021750	0.010381	0.079307	0.999639	0.000108	0.000194	0.026883
05008	-0.012758	0.008538	9.932104	0.024061	-0.028065	0.119360	0.999639	0.000112	0.000201	0.026880
05009	-0.048596	0.028099	9.926857	-0.012804	-0.010417	0.114315	0.999639	0.000106	0.000194	0.026867
05010	-0.056155	0.055301	9.920259	-0.021898	0.016428	0.107847	0.999639	0.000105	0.000195	0.026874
05011	-0.048406	0.027605	9.926860	-0.012420	-0.010771	0.114315	0.999639	0.000100	0.000217	0.026878
05012	-0.012311	0.007627	9.932105	0.024841	-0.028757	0.119356	0.999638	0.000101	0.000207	0.026885
05013	-0.020335	0.041717	9.954020	0.015017	0.004679	0.141428	0.999638	0.000110	0.000210	0.026892
05014	-0.047947	0.027189	9.926863	-0.011844	-0.011296	0.114315	0.999638	0.000109	0.000210	0.026889
05015	-0.048243	0.033697	9.955377	-0.012374	-0.004887	0.142854	0.999638	0.000107	0.000211	0.026896
05016	-0.012083	0.013798	9.960619	0.024896	-0.022855	0.147891	0.999638	0.000111	0.000218	0.026892
05017	-0.027212	0.061870	9.918915	0.007185	0.024431	0.106425	0.999638	0.000114	0.000225	0.026898
05018	-0.047981	0.033144	9.955380	-0.011799	-0.005413	0.142855	0.999638	0.000102	0.000225	0.026913
05019	-0.019194	0.033824	9.925513	0.016877	-0.002926	0.112887	0.999638	0.000099	0.000234	0.026890
05020	-0.039378	-0.001668	9.933464	-0.001373	-0.039353	0.120776	0.999638	0.000089	0.000222	0.026897
05021	-0.046937	0.025586	9.926872	-0.010501	-0.012511	0.114315	0.999638	0.000098	0.000224	0.026894
05022	-0.038928	-0.001963	9.933465	-0.000978	-0.039698	0.120775	0.999638	0.000097	0.000224	0.026891
05023	-0.054907	0.059434	9.948797	-0.020166	0.020720	0.136396	0.999638	0.000096	0.000225	0.026889
05024	-0.017671	0.026160	9.897005	0.018564	-0.010362	0.084345	0.999638	0.000101	0.000220	0.026887
05025	-0.046182	0.024918	9.926877	-0.009726	-0.013212	0.114315	0.999639	0.000093	0.000225	0.026882
05026	-0.053914	0.052091	9.920289	-0.018878	0.013617	0.107858	0.999638	0.000092	0.000226	0.026889
05027	-0.017772	0.032181	9.925521	0.018418	-0.004297	0.112884	0.999639	0.000089	0.000237	0.026885
05028	-0.017592	0.031976	9.925522	0.018609	-0.004470	0.112883	0.999639	0.000090	0.000226	0.026883
05029	-0.045462	0.023975	9.926883	-0.008956	-0.013913	0.114315	0.999639	0.000084	0.000220	0.026880
05030	-0.017004	0.031489	9.925525	0.018990	-0.004813	0.112883	0.999639	0.000083	0.000220	0.026877
05031	-0.045038	0.023511	9.926886	-0.008572	-0.014268	0.114315	0.999639	0.000082	0.000220	0.026874
05032	-0.009263	0.010454	9.960626	0.028012	-0.025589	0.147876	0.999639	0.000091	0.000223	0.026881
05033	-0.044657	0.023261	9.926888	-0.008184	-0.014618	0.114315	0.999639	0.000086	0.000216	0.026869
05034	-0.023996	0.058240	9.918945	0.010383	0.021493	0.106429	0.999638	0.000086	0.000207	0.026886
05035	-0.044138	0.022812	9.926892	-0.007796	-0.014971	0.114314	0.999639	0.000083	0.000216	0.026863
05036	-0.051912	0.050083	9.920310	-0.016984	0.011846	0.107864	0.999639	0.000088	0.000214	0.026880
05037	-0.015604	0.030295	9.925531	0.020338	-0.006023	0.112879	0.999639	0.000087	0.000214	0.026877
05038	-0.043691	0.022338	9.926895	-0.007213	-0.015502	0.114314	0.999639	0.000091	0.000220	0.026874
05039	-0.023730	0.064006	9.947468	0.010602	0.027190	0.134972	0.999639	0.000079	0.000218	0.026870
05040	-0.007308	0.002067	9.932113	0.030307	-0.033531	0.119326	0.999639	0.000071	0.000225	0.026885
05041	-0.015063	0.029399	9.925534	0.021103	-0.006710	0.112877	0.999639	0.000087	0.000221	0.026874
05042	-0.072075	0.027155	9.985297	-0.035635	-0.012394	0.172835	0.999639	0.000088	0.000209	0.026853
05043	-0.014630	0.029160	9.925536	0.021490	-0.007051	0.112876	0.999639	0.000083	0.000231	0.026858
05044	-0.043300	0.027758	9.955418	-0.006782	-0.009988	0.142856	0.999639	0.000077	0.000226	0.026864
05045	-0.051007	0.054928	9.948843	-0.016001	0.016820	0.136411	0.999639	0.000076	0.000227	0.026871
05046	-0.014126	0.028437	9.925538	0.022066	-0.007570	0.112875	0.999639	0.000077	0.000217	0.026869
05047	-0.042481	0.027174	9.955423	-0.006201	-0.010518	0.142856	0.999639	0.000082	0.000213	0.026877
05048	-0.021585	0.055525	9.918966	0.013028	0.019067	0.106431	0.999639	0.000074	0.000219	0.026882
05049	-0.041672	0.020058	9.926908	-0.005085	-0.017430	0.114312	0.999639	0.000079	0.000215	0.026880
05050	-0.013356	0.027738	9.925542	0.022836	-0.008257	0.112872	0.999639	0.000077	0.000225	0.026876
05051	-0.041484	0.019673	9.926910	-0.004695	-0.017785	0.114312	0.999639	0.000076	0.000227	0.026883
05052	-0.049206	0.046839	9.920340	-0.013940	0.009015	0.107871	0.999639	0.000070	0.000220	0.026880
05053	-0.041501	0.025858	9.955431	-0.005036	-0.011580	0.142855	0.999638	0.000069	0.000222	0.026887
05054	-0.020619	0.054231	9.918975	0.014166	0.018023	0.106431	0.999639	0.000068	0.000222	0.026884
05055	-0.040197	0.012054	9.898397	-0.003188	-0.025043	0.085766	0.999638	0.000066	0.000223	0.026890
05056	-0.048971	0.052755	9.948865	-0.013910	0.014867	0.136417	0.999638	0.000076	0.000225	0.026888
05057	-0.012812	0.033028	9.954065	0.023456	-0.002909	0.141413	0.999638	0.000067	0.000241	0.026893
05058	-0.040757	0.024906	9.955436	-0.004070	-0.012460	0.142855	0.999639	0.000069	0.000219	0.026883
05059	-0.047373	0.038653	9.891835	-0.011877	0.001227	0.079329	0.999638	0.000057	0.000219	0.026898
05060	-0.011626	0.025584	9.925549	0.024763	-0.009980	0.112866	0.999639	0.000065	0.000230	0.026885
05061	-0.040162	0.024234	9.955440	-0.003492	-0.012984	0.142854	0.999639	0.000060	0.000224	0.026882
05062	-0.039858	0.023934	9.955442	-0.003298	-0.013161	0.142854	0.999639	0.000054	0.000218	0.026879
05063	-0.047092	0.044463	9.920361	-0.011849	0.007081	0.107876	0.999638	0.000059	0.000215	0.026887
05064	-0.038877	0.016798	9.926926	-0.002177	-0.020060	0.114308	0.999638	0.000047	0.000214	0.026893
05065	-0.018587	0.051941	9.918991	0.016240	0.016129	0.106431	0.999638	0.000061	0.000222	0.026890
05066	-0.010261	0.024511	9.925554	0.025918	-0.011006	0.112862	0.999639	0.000064	0.000200	0.026881
05067	-0.074231	0.035936	9.921744	-0.038795	-0.003036	0.109323	0.999638	0.000062	0.000201	0.026887
05068	-0.017237	0.044853	9.890475	0.017543	0.009061	0.077885	0.999638	0.000061	0.000202	0.026894
05069	-0.038304	0.022687	9.955451	-0.001943	-0.014390	0.142853	0.999638	0.000058	0.000213	0.026890
05070	-0.017597	0.051098	9.918998	0.017187	0.015264	0.106431	0.999638	0.000057	0.000214	0.026896
05071	-0.065755	0.007654	9.928308	-0.028521	-0.030714	0.115753	0.999638	0.000056	0.000214	0.026893
05072	-0.045364	0.042721	9.920377	-0.010135	0.005489	0.107878	0.999638	0.000051	0.000208	0.026891
05073	-0.037078	0.015232	9.926935	-0.000432	-0.021638	0.114305	0.999638	0.000066	0.000207	0.026899
05074	-0.037077	0.015163	9.926935	-0.000238	-0.021814	0.114305	0.999639	0.000062	0.000227	0.026884
05075	-0.008821	0.022874	9.925559	0.027651	-0.012548	0.112855	0.999639	0.000062	0.000216	0.026882
05076	-0.072931	0.034210	9.921759	-0.037072	-0.004655	0.109329	0.999638	0.000061	0.000219	0.026898
05077	-0.008351	0.022540	9.925560	0.028037	-0.012888	0.112854	0.999638	0.000066	0.000214	0.026897
05078	-0.044816	0.048531	9.948906	-0.009733	0.010982	0.136427	0.999639	0.000065	0.000213	0.026884
05079	-0.036026	0.014202	9.926940	0.000733	-0.022679	0.114303	0.999639	0.000059	0.000207	0.026882
05080	-0.043794	0.041405	9.920389	-0.008612	0.004091	0.107881	0.999639	0.000064	0.000203	0.026880
05081	-0.015569	0.049137	9.919011	0.019271	0.013375	0.106430	0.999639	0.000055	0.000219	0.026884
05082	-0.036039	0.020303	9.955465	0.000580	-0.016665	0.142849	0.999639	0.000067	0.000210	0.026874
05083	-0.035768	0.020218	9.955466	0.000772	-0.016837	0.142849	0.999639	0.000065	0.000211	0.026881
05084	-0.043106	0.040679	9.920395	-0.007847	0.003388	0.107881	0.999639	0.000060	0.000204	0.026869
05085	-0.006518	0.021022	9.925565	0.029588	-0.014255	0.112848	0.999639	0.000061	0.000193	0.026867
05086	-0.063034	0.011559	9.956853	-0.026325	-0.026845	0.144301	0.999639	0.000059	0.000193	0.026865
05087	-0.042794	0.046822	9.948923	-0.008011	0.009394	0.136431	0.999639	0.000069	0.000195	0.026863
05088	-0.013981	0.047921	9.919019	0.020601	0.012165	0.106429	0.999639	0.000057	0.000195	0.026868
05089	-0.041886	0.039686	9.920405	-0.006888	0.002508	0.107882	0.999640	0.000062	0.000188	0.026848
05090	-0.033959	0.018949	9.955475	0.002136	-0.018067	0.142847	0.999639	0.000074	0.000181	0.026856
05091	-0.041780	0.046141	9.948931	-0.007247	0.008691	0.136432	0.999639	0.000062	0.000179	0.026853
05092	-0.004974	0.019859	9.925568	0.030943	-0.015454	0.112842	0.999639	0.000070	0.000193	0.026859
05093	-0.004925	0.019747	9.925568	0.031390	-0.015662	0.112840	0.999637	0.000071	0.000205	0.026925
05094	-0.005175	0.026169	9.954092	0.030841	-0.009301	0.141388	0.999637	0.000066	0.000199	0.026923
05095	-0.061227	0.009903	9.956866	-0.024309	-0.028504	0.144301	0.999638	0.000065	0.000199	0.026920
05096	-0.032410	0.011143	9.926957	0.004299	-0.025698	0.114294	0.999638	0.000074	0.000200	0.026908
05097	-0.040208	0.038390	9.920417	-0.005114	0.001054	0.107884	0.999637	0.000070	0.000185	0.026926
05098	-0.031777	0.010880	9.926959	0.004684	-0.026047	0.114293	0.999637	0.000080	0.000187	0.026924
05099	-0.039937	0.038127	9.920419	-0.004732	0.000704	0.107884	0.999638	0.000075	0.000207	0.026909
05100	-0.039935	0.037950	9.920420	-0.004541	0.000527	0.107884	0.999637	0.000080	0.000205	0.026926
05101	-0.068423	0.036379	9.950333	-0.032757	-0.002649	0.137894	0.999637	0.000073	0.000211	0.026932
05102	-0.011523	0.045506	9.919034	0.023504	0.009721	0.106425	0.999637	0.000072	0.000211	0.026929
05103	-0.059944	0.008582	9.956875	-0.022747	-0.029928	0.144301	0.999637	0.000077	0.000208	0.026937
05104	-0.011601	0.051992	9.947559	0.023138	0.015903	0.134975	0.999637	0.000086	0.000209	0.026926
05105	-0.067646	0.035654	9.950341	-0.031988	-0.003371	0.137896	0.999637	0.000070	0.000203	0.026941
05106	-0.030643	0.009409	9.926964	0.006243	-0.027439	0.114289	0.999637	0.000080	0.000205	0.026939
05107	-0.066892	0.028613	9.921820	-0.030856	-0.010253	0.109346	0.999637	0.000076	0.000218	0.026954
05108	-0.031211	0.015764	9.955489	0.005887	-0.021260	0.142839	0.999637	0.000078	0.000235	0.026950
05109	-0.039346	0.042956	9.948955	-0.003567	0.005472	0.136436	0.999637	0.000077	0.000233	0.026938
05110	-0.002326	0.016843	9.925575	0.034674	-0.018571	0.112824	0.999637	0.000082	0.000230	0.026946
05111	-0.038410	0.036002	9.920433	-0.002440	-0.001405	0.107885	0.999637	0.000081	0.000230	0.026943
05112	-0.066432	0.027771	9.921825	-0.029898	-0.011157	0.109348	0.999637	0.000085	0.000238	0.026949
05113	-0.038055	0.035754	9.920435	-0.002054	-0.001756	0.107885	0.999637	0.000092	0.000224	0.026958
05114	-0.001630	0.016305	9.925576	0.035449	-0.019256	0.112820	0.999637	0.000087	0.000244	0.026944
05115	-0.030074	0.014683	9.955494	0.007253	-0.022489	0.142835	0.999637	0.000089	0.000224	0.026953
05116	-0.036928	0.028596	9.891914	-0.000726	-0.008801	0.079333	0.999637	0.000093	0.000230	0.026941
05117	-0.037756	0.041814	9.948966	-0.002031	0.004065	0.136437	0.999637	0.000098	0.000226	0.026939
05118	-0.037543	0.041667	9.948967	-0.001839	0.003888	0.136437	0.999637	0.000097	0.000227	0.026946
05119	-0.036978	0.034787	9.920443	-0.000899	-0.002805	0.107885	0.999637	0.000094	0.000237	0.026942
05120	-0.056900	-0.000738	9.928366	-0.018660	-0.039485	0.115746	0.999637	0.000108	0.000246	0.026940
05121	-0.037337	0.041381	9.948969	-0.001266	0.003365	0.136438	0.999637	0.000113	0.000242	0.026938
05122	-0.028501	0.007100	9.926973	0.009370	-0.030226	0.114278	0.999637	0.000099	0.000251	0.026943
05123	-0.007909	0.035703	9.890524	0.028254	-0.000400	0.077864	0.999637	0.000111	0.000242	0.026933
05124	-0.036729	0.040714	9.948974	-0.000692	0.002841	0.136438	0.999638	0.000099	0.000239	0.026920
05125	-0.036035	0.033853	9.920449	0.000254	-0.003843	0.107884	0.999638	0.000108	0.000241	0.026918
05126	-0.055772	-0.001720	9.928372	-0.017478	-0.040538	0.115743	0.999637	0.000107	0.000242	0.026925
05127	-0.035669	0.033606	9.920451	0.000640	-0.004193	0.107884	0.999637	0.000112	0.000238	0.026924
05128	-0.035439	0.033354	9.920453	0.000832	-0.004369	0.107884	0.999637	0.000100	0.000237	0.026930
05129	-0.063347	0.025076	9.921853	-0.026606	-0.014180	0.109353	0.999637	0.000116	0.000236	0.026938
05130	-0.027290	0.012366	9.955506	0.010182	-0.025096	0.142826	0.999637	0.000104	0.000234	0.026935
05131	-0.042553	0.053445	9.885408	-0.007568	0.015486	0.072942	0.999637	0.000103	0.000233	0.026923
05132	-0.026897	0.011847	9.955507	0.010572	-0.025441	0.142825	0.999637	0.000102	0.000234	0.026929
05133	-0.034407	0.032290	9.920460	0.001787	-0.005242	0.107884	0.999637	0.000097	0.000228	0.026927
05134	-0.025913	0.004695	9.926981	0.011716	-0.032301	0.114269	0.999637	0.000096	0.000228	0.026924
05135	-0.034494	0.038480	9.948991	0.001417	0.000919	0.136438	0.999638	0.000094	0.000228	0.026922
05136	-0.033416	0.024963	9.891936	0.003119	-0.012273	0.079328	0.999637	0.000091	0.000240	0.026927
05137	-0.034302	0.038097	9.948994	0.001803	0.000571	0.136438	0.999638	0.000097	0.000234	0.026907
05138	-0.004977	0.032930	9.890536	0.031122	-0.002950	0.077855	0.999637	0.000106	0.000238	0.026924
05139	-0.061942	0.029697	9.950398	-0.025428	-0.009451	0.137911	0.999637	0.000096	0.000227	0.026931
05140	-0.053391	0.002164	9.956916	-0.015477	-0.036508	0.144293	0.999637	0.000106	0.000229	0.026930
05141	-0.041175	0.058266	9.913955	-0.006435	0.020243	0.101501	0.999637	0.000105	0.000229	0.026927
05142	-0.061322	0.029188	9.950403	-0.024849	-0.009987	0.137912	0.999637	0.000103	0.000229	0.026924
05143	-0.032037	0.023873	9.891943	0.004468	-0.013481	0.079326	0.999637	0.000102	0.000230	0.026931
05144	-0.061053	0.028813	9.950406	-0.024463	-0.010339	0.137912	0.999637	0.000105	0.000238	0.026938
05145	-0.004590	0.044996	9.947599	0.030944	0.008872	0.134963	0.999637	0.000102	0.000221	0.026937
05146	-0.023242	-0.004077	9.898458	0.014825	-0.040872	0.085703	0.999637	0.000097	0.000243	0.026941
05147	-0.040776	0.063649	9.942495	-0.006061	0.025699	0.130060	0.999638	0.000098	0.000231	0.026921
05148	-0.023875	0.008797	9.955518	0.013701	-0.028214	0.142814	0.999637	0.000096	0.000232	0.026928
05149	-0.031499	0.029280	9.920479	0.004865	-0.008021	0.107881	0.999637	0.000095	0.000232	0.026925
05150	-0.040170	0.063149	9.942501	-0.005496	0.025168	0.130062	0.999637	0.000105	0.000235	0.026933
05151	-0.059838	0.027447	9.950417	-0.023110	-0.011587	0.137914	0.999637	0.000098	0.000240	0.026929
05152	-0.031599	0.035285	9.949013	0.004682	-0.002047	0.136437	0.999637	0.000086	0.000238	0.026926
05153	-0.039195	0.055828	9.913977	-0.004170	0.018142	0.101507	0.999637	0.000102	0.000237	0.026935
05154	-0.030753	0.028342	9.920484	0.005827	-0.008895	0.107879	0.999638	0.000088	0.000244	0.026920
05155	-0.038998	0.055445	9.913980	-0.003791	0.017792	0.101507	0.999638	0.000098	0.000246	0.026919
05156	-0.058475	0.019700	9.921895	-0.021379	-0.018976	0.109358	0.999637	0.000088	0.000235	0.026926
05157	-0.038484	0.054895	9.913985	-0.003412	0.017441	0.101508	0.999637	0.000080	0.000240	0.026923
05158	-0.030011	0.027306	9.920490	0.006600	-0.009591	0.107878	0.999638	0.000079	0.000240	0.026920
05159	-0.029342	0.020573	9.891959	0.007555	-0.016258	0.079320	0.999637	0.000089	0.000243	0.026928
05160	-0.029694	0.027108	9.920491	0.006986	-0.009938	0.107878	0.999638	0.000088	0.000242	0.026916
05161	-0.029664	0.026826	9.920492	0.007178	-0.010114	0.107877	0.999638	0.000079	0.000258	0.026921
05162	-0.029770	0.026527	9.920492	0.007371	-0.010289	0.107877	0.999637	0.000076	0.000271	0.026936
05163	-0.057786	0.018157	9.921902	-0.020020	-0.020221	0.109358	0.999638	0.000085	0.000271	0.026915
05164	-0.038314	0.060276	9.942526	-0.002850	0.022702	0.130069	0.999637	0.000086	0.000261	0.026923
05165	-0.057229	0.017877	9.921905	-0.019632	-0.020576	0.109358	0.999638	0.000085	0.000261	0.026921
05166	-0.029418	0.032686	9.949028	0.007379	-0.004495	0.136434	0.999637	0.000096	0.000254	0.026930
05167	-0.001063	0.040766	9.947618	0.035153	0.005102	0.134951	0.999638	0.000085	0.000251	0.026917
05168	-0.048152	-0.010092	9.928407	-0.009189	-0.047955	0.115722	0.999637	0.000077	0.000257	0.026923
05169	-0.027894	0.018752	9.891967	0.009491	-0.017995	0.079316	0.999638	0.000091	0.000265	0.026921
05170	-0.036475	0.052667	9.914004	-0.000947	0.015160	0.101512	0.999638	0.000094	0.000243	0.026912
05171	-0.056400	0.023510	9.950448	-0.019228	-0.015154	0.137918	0.999637	0.000091	0.000256	0.026927
05172	-0.036275	0.052345	9.914007	-0.000569	0.014811	0.101513	0.999637	0.000099	0.000269	0.026924
05173	-0.027824	0.024923	9.920502	0.009491	-0.012202	0.107873	0.999638	0.000098	0.000268	0.026921
05174	-0.036620	0.058587	9.942543	-0.000962	0.020946	0.130073	0.999637	0.000090	0.000274	0.026927
05175	-0.027678	0.024374	9.920504	0.009876	-0.012551	0.107872	0.999637	0.000087	0.000284	0.026923
05176	-0.000066	0.039081	9.947625	0.036870	0.003563	0.134946	0.999638	0.000086	0.000285	0.026921
05177	-0.027589	0.023979	9.920505	0.010264	-0.012896	0.107871	0.999638	0.000088	0.000302	0.026917
05178	-0.027375	0.023834	9.920506	0.010457	-0.013070	0.107871	0.999637	0.000090	0.000282	0.026926
05179	-0.055681	0.021953	9.950455	-0.017678	-0.016575	0.137918	0.999637	0.000087	0.000293	0.026923
05180	-0.027025	0.023424	9.920508	0.010846	-0.013416	0.107870	0.999638	0.000086	0.000293	0.026920
05181	-0.035733	0.057094	9.942555	0.000363	0.019721	0.130076	0.999638	0.000081	0.000286	0.026918
05182	-0.026492	0.022878	9.920511	0.011229	-0.013765	0.107869	0.999637	0.000075	0.000281	0.026925
05183	-0.054838	0.020918	9.950462	-0.016904	-0.017288	0.137918	0.999637	0.000074	0.000281	0.026923
05184	-0.026566	0.028994	9.949048	0.010847	-0.007633	0.136429	0.999637	0.000069	0.000277	0.026939
05185	-0.034835	0.056084	9.942564	0.001119	0.019017	0.130077	0.999637	0.000072	0.000283	0.026927
05186	-0.034193	0.049306	9.914030	0.002078	0.012362	0.101516	0.999637	0.000071	0.000284	0.026934
05187	-0.054166	0.020080	9.950467	-0.016129	-0.018004	0.137918	0.999637	0.000070	0.000285	0.026941
05188	-0.025455	0.021541	9.920516	0.012387	-0.014812	0.107866	0.999637	0.000063	0.000288	0.026928
05189	-0.053249	0.012941	9.921935	-0.014966	-0.024836	0.109357	0.999637	0.000064	0.000278	0.026927
05190	-0.033341	0.048454	9.914037	0.002841	0.011660	0.101517	0.999637	0.000069	0.000275	0.026935
05191	-0.025197	0.027633	9.949055	0.012198	-0.008858	0.136427	0.999637	0.000068	0.000275	0.026933
05192	-0.053025	0.019128	9.950476	-0.015155	-0.018895	0.137918	0.999637	0.000073	0.000272	0.026941
05193	-0.060679	0.039610	9.915462	-0.024137	0.001271	0.103010	0.999637	0.000068	0.000265	0.026929
05194	-0.024050	0.020528	9.920522	0.013549	-0.015853	0.107863	0.999637	0.000075	0.000279	0.026936
05195	-0.052532	0.018548	9.950479	-0.014572	-0.019423	0.137918	0.999638	0.000064	0.000275	0.026914
05196	-0.023728	0.020166	9.920524	0.013936	-0.016198	0.107862	0.999637	0.000079	0.000273	0.026922
05197	-0.051507	0.011704	9.921946	-0.013411	-0.026251	0.109355	0.999638	0.000074	0.000267	0.026920
05198	-0.068248	0.066016	9.908994	-0.033148	0.027190	0.096669	0.999637	0.000073	0.000269	0.026927
05199	-0.023068	0.019629	9.920526	0.014514	-0.016719	0.107860	0.999637	0.000072	0.000269	0.026925
05200	-0.059989	0.044862	9.944011	-0.023576	0.006493	0.131576	0.999638	0.000065	0.000273	0.026921
05201	-0.031772	0.052940	9.942591	0.004148	0.016211	0.130081	0.999637	0.000059	0.000268	0.026928
05202	-0.050419	0.010422	9.921953	-0.012442	-0.027136	0.109354	0.999638	0.000060	0.000255	0.026908
05203	-0.022832	0.025207	9.949067	0.014512	-0.010942	0.136422	0.999638	0.000055	0.000278	0.026913
05204	-0.002733	0.054169	9.912634	0.033024	0.019124	0.100022	0.999638	0.000067	0.000269	0.026912
05205	-0.013532	-0.008825	9.927003	0.025664	-0.044553	0.114196	0.999638	0.000070	0.000276	0.026910
05206	-0.057946	0.030548	9.886947	-0.020882	-0.007503	0.074451	0.999638	0.000069	0.000277	0.026917
05207	-0.030224	0.045315	9.914062	0.006063	0.008704	0.101518	0.999638	0.000063	0.000271	0.026915
05208	-0.049548	0.009418	9.921958	-0.011271	-0.028189	0.109353	0.999638	0.000066	0.000277	0.026912
05209	-0.021380	0.017739	9.920534	0.016446	-0.018442	0.107854	0.999637	0.000071	0.000275	0.026929
05210	-0.057712	0.036333	9.915492	-0.020892	-0.001747	0.103017	0.999637	0.000060	0.000273	0.026926
05211	-0.021533	0.023886	9.949074	0.016056	-0.012327	0.136418	0.999637	0.000069	0.000277	0.026943
05212	-0.057447	0.035961	9.915495	-0.020510	-0.002105	0.103018	0.999637	0.000062	0.000281	0.026930
05213	-0.029293	0.044128	9.914070	0.007201	0.007652	0.101518	0.999637	0.000061	0.000282	0.026938
05214	-0.048662	0.008260	9.921964	-0.010104	-0.029254	0.109351	0.999637	0.000064	0.000288	0.026935
05215	-0.001651	0.058898	9.941184	0.034318	0.023708	0.128583	0.999637	0.000068	0.000294	0.026932
05216	-0.048922	0.014596	9.950504	-0.010493	-0.023148	0.137915	0.999637	0.000069	0.000285	0.026940
05217	-0.028700	0.043567	9.914074	0.007960	0.006954	0.101518	0.999637	0.000072	0.000290	0.026929
05218	-0.056482	0.034968	9.915504	-0.019362	-0.003176	0.103020	0.999637	0.000073	0.000280	0.026927
05219	-0.020292	0.022661	9.949079	0.017598	-0.013719	0.136413	0.999637	0.000081	0.000294	0.026934
05220	-0.028239	0.043272	9.914077	0.008526	0.006433	0.101518	0.999637	0.000086	0.000290	0.026942
05221	-0.048018	0.013999	9.950509	-0.009522	-0.024032	0.137914	0.999637	0.000085	0.000292	0.026949
05222	-0.056374	0.041111	9.944049	-0.019378	0.002571	0.131587	0.999637	0.000090	0.000288	0.026948
05223	-0.018979	0.015536	9.920542	0.019153	-0.020869	0.107845	0.999637	0.000084	0.000282	0.026955
05224	-0.055872	0.040664	9.944053	-0.018997	0.002216	0.131588	0.999637	0.000083	0.000283	0.026952
05225	-0.026676	0.035683	9.885544	0.010260	-0.000892	0.072952	0.999636	0.000076	0.000289	0.026968
05226	-0.055607	0.040016	9.944057	-0.018612	0.001858	0.131588	0.999637	0.000064	0.000285	0.026946
05227	-0.026886	0.041702	9.914087	0.009861	0.005217	0.101518	0.999636	0.000074	0.000289	0.026963
05228	-0.047330	0.019028	9.979058	-0.008938	-0.018817	0.166479	0.999637	0.000071	0.000299	0.026950
05229	-0.046224	0.005666	9.921977	-0.007182	-0.031898	0.109345	0.999637	0.000074	0.000305	0.026948
05230	-0.026659	0.041315	9.914089	0.010431	0.004695	0.101517	0.999637	0.000080	0.000301	0.026946
05231	-0.027084	0.047747	9.942631	0.009840	0.010972	0.130084	0.999637	0.000077	0.000312	0.026943
05232	-0.017933	0.013732	9.920547	0.020900	-0.022423	0.107838	0.999637	0.000080	0.000319	0.026950
05233	-0.045654	0.005035	9.921980	-0.006399	-0.032602	0.109343	0.999637	0.000076	0.000303	0.026949
05234	-0.026464	0.047256	9.942635	0.010411	0.010449	0.130084	0.999637	0.000086	0.000303	0.026928
05235	-0.053651	0.032068	9.915529	-0.016105	-0.006187	0.103024	0.999637	0.000087	0.000295	0.026946
05236	-0.025445	0.040442	9.914096	0.011576	0.003655	0.101517	0.999637	0.000090	0.000300	0.026934
05237	-0.045780	0.017691	9.979068	-0.007187	-0.020410	0.166477	0.999637	0.000089	0.000301	0.026941
05238	-0.025161	0.040079	9.914098	0.011954	0.003308	0.101516	0.999637	0.000088	0.000301	0.026939
05239	-0.053507	0.037931	9.944077	-0.016124	-0.000446	0.131593	0.999637	0.000087	0.000300	0.026927
05240	-0.052774	0.031137	9.915537	-0.015148	-0.007070	0.103025	0.999637	0.000086	0.000300	0.026925
05241	-0.016581	0.018859	9.949094	0.021863	-0.017524	0.136399	0.999637	0.000089	0.000308	0.026932
05242	-0.044448	0.010158	9.950531	-0.005424	-0.027738	0.137908	0.999638	0.000088	0.000307	0.026920
05243	-0.043721	0.003366	9.921990	-0.004444	-0.034356	0.109339	0.999637	0.000087	0.000308	0.026927
05244	-0.062062	0.070784	9.966178	-0.026080	0.031864	0.153851	0.999637	0.000084	0.000320	0.026933
05245	-0.052739	0.036694	9.944086	-0.014971	-0.001511	0.131595	0.999637	0.000079	0.000314	0.026931
05246	-0.023865	0.038432	9.914108	0.013483	0.001923	0.101515	0.999637	0.000080	0.000303	0.026930
05247	-0.051624	0.029729	9.915547	-0.013800	-0.008307	0.103026	0.999637	0.000083	0.000310	0.026928
05248	-0.052013	0.036101	9.944092	-0.014394	-0.002045	0.131595	0.999637	0.000077	0.000306	0.026945
05249	-0.023866	0.044461	9.942655	0.013268	0.007846	0.130083	0.999637	0.000081	0.000311	0.026932
05250	-0.022518	0.031161	9.885570	0.015034	-0.005207	0.072944	0.999638	0.000082	0.000299	0.026913
05251	-0.050776	0.029084	9.915554	-0.013031	-0.009015	0.103026	0.999637	0.000091	0.000303	0.026930
05252	-0.051190	0.035668	9.944098	-0.013626	-0.002755	0.131596	0.999638	0.000101	0.000304	0.026919
05253	-0.014348	0.016924	9.949101	0.024197	-0.019596	0.136390	0.999638	0.000100	0.000303	0.026908
05254	-0.022297	0.037370	9.914116	0.015014	0.000537	0.101513	0.999638	0.000099	0.000304	0.026905
05255	-0.050152	0.028620	9.915558	-0.012261	-0.009722	0.103027	0.999638	0.000102	0.000310	0.026903
05256	-0.050027	0.028352	9.915560	-0.012069	-0.009899	0.103027	0.999638	0.000091	0.000309	0.026909
05257	-0.013161	0.009687	9.920559	0.025764	-0.026724	0.107816	0.999638	0.000117	0.000309	0.026910
05258	-0.058766	0.062089	9.937666	-0.022651	0.022917	0.125294	0.999638	0.000108	0.000296	0.026899
05259	-0.048687	0.021522	9.887020	-0.010700	-0.016866	0.074456	0.999638	0.000117	0.000300	0.026916
05260	-0.021608	0.043137	9.942666	0.015370	0.005929	0.130082	0.999638	0.000112	0.000293	0.026905
05261	-0.049324	0.034276	9.944112	-0.011896	-0.004354	0.131598	0.999638	0.000111	0.000293	0.026902
05262	-0.039875	0.000276	9.922006	-0.000719	-0.037698	0.109327	0.999638	0.000110	0.000293	0.026900
05263	-0.048476	0.027333	9.915570	-0.010721	-0.011141	0.103027	0.999638	0.000113	0.000299	0.026898
05264	-0.020336	0.035750	9.914126	0.016924	-0.001199	0.101510	0.999638	0.000108	0.000293	0.026896
05265	-0.048013	0.026936	9.915573	-0.010336	-0.011494	0.103027	0.999638	0.000113	0.000289	0.026894
05266	-0.047779	0.026791	9.915575	-0.010143	-0.011671	0.103027	0.999639	0.000112	0.000288	0.026883
05267	-0.039319	0.005958	9.950556	-0.000533	-0.032144	0.137896	0.999638	0.000113	0.000280	0.026901
05268	-0.047452	0.026376	9.915578	-0.009760	-0.012023	0.103027	0.999638	0.000108	0.000301	0.026896
05269	-0.019537	0.034779	9.914131	0.017877	-0.002058	0.101508	0.999638	0.000107	0.000302	0.026903
05270	-0.039024	0.005305	9.950557	0.000055	-0.032669	0.137894	0.999638	0.000108	0.000292	0.026902
05271	-0.046873	0.025711	9.915582	-0.009181	-0.012545	0.103027	0.999638	0.000102	0.000286	0.026900
05272	-0.046549	0.025475	9.915584	-0.008988	-0.012723	0.103027	0.999638	0.000103	0.000278	0.026918
05273	-0.018822	0.040570	9.942682	0.017851	0.003677	0.130079	0.999638	0.000109	0.000271	0.026898
05274	-0.018706	0.040412	9.942683	0.018042	0.003503	0.130078	0.999638	0.000106	0.000284	0.026913
05275	-0.046010	0.024856	9.915588	-0.008410	-0.013252	0.103027	0.999638	0.000094	0.000280	0.026892
05276	-0.009500	0.012649	9.949113	0.028669	-0.023560	0.136369	0.999638	0.000101	0.000268	0.026911
05277	-0.045357	0.024491	9.915592	-0.008022	-0.013605	0.103026	0.999638	0.000100	0.000268	0.026909
05278	-0.009019	0.012321	9.949114	0.029060	-0.023905	0.136367	0.999638	0.000099	0.000269	0.026916
05279	-0.045019	0.024078	9.915595	-0.007639	-0.013959	0.103026	0.999638	0.000098	0.000269	0.026913
05280	-0.017574	0.039207	9.942690	0.019189	0.002462	0.130077	0.999638	0.000106	0.000282	0.026911
05281	-0.053622	0.051000	9.909172	-0.017517	0.012398	0.096738	0.999638	0.000101	0.000275	0.026899
05282	-0.025444	0.059438	9.907722	0.010101	0.022403	0.095215	0.999638	0.000100	0.000276	0.026907
05283	-0.035666	-0.003748	9.922022	0.003398	-0.041371	0.109312	0.999637	0.000109	0.000280	0.026924
05284	-0.053665	0.057106	9.937725	-0.017747	0.018287	0.125314	0.999638	0.000108	0.000279	0.026912
05285	-0.035874	0.002509	9.950570	0.002995	-0.035299	0.137885	0.999638	0.000107	0.000279	0.026910
05286	-0.044559	0.029542	9.944150	-0.007089	-0.008770	0.131600	0.999638	0.000110	0.000286	0.026908
05287	-0.015947	0.031529	9.914148	0.021319	-0.005165	0.101500	0.999638	0.000109	0.000286	0.026905
05288	-0.044282	0.029173	9.944152	-0.006707	-0.009126	0.131600	0.999637	0.000108	0.000288	0.026922
05289	-0.043710	0.022437	9.915605	-0.005712	-0.015716	0.103025	0.999638	0.000110	0.000303	0.026900
05290	-0.052972	0.056024	9.937735	-0.016611	0.017222	0.125318	0.999638	0.000110	0.000295	0.026918
05291	-0.043195	0.021996	9.915608	-0.005324	-0.016066	0.103025	0.999638	0.000101	0.000281	0.026907
05292	-0.042944	0.021746	9.915609	-0.005130	-0.016243	0.103024	0.999638	0.000104	0.000288	0.026905
05293	-0.043396	0.028141	9.944159	-0.005737	-0.010007	0.131599	0.999638	0.000103	0.000289	0.026912
05294	-0.015238	0.036621	9.942704	0.021868	0.000041	0.130071	0.999638	0.000098	0.000283	0.026910
05295	-0.051274	0.048313	9.909198	-0.014865	0.009923	0.096745	0.999638	0.000101	0.000290	0.026917
05296	-0.042878	0.027521	9.944163	-0.005160	-0.010536	0.131599	0.999638	0.000100	0.000289	0.026905
05297	-0.042637	0.027269	9.944165	-0.004965	-0.010711	0.131599	0.999638	0.000095	0.000284	0.026913
05298	-0.042389	0.026911	9.944167	-0.004772	-0.010888	0.131599	0.999638	0.000083	0.000282	0.026910
05299	-0.042087	0.026615	9.944169	-0.004576	-0.011067	0.131599	0.999638	0.000084	0.000272	0.026910
05300	-0.013415	0.028613	9.914161	0.023822	-0.007406	0.101493	0.999638	0.000081	0.000282	0.026897
05301	-0.022765	0.062124	9.936302	0.012881	0.025524	0.123794	0.999638	0.000080	0.000283	0.026904
05302	-0.041653	0.025980	9.944172	-0.003995	-0.011590	0.131598	0.999638	0.000079	0.000283	0.026902
05303	-0.077089	0.031150	9.882125	-0.039939	-0.008155	0.069703	0.999638	0.000084	0.000279	0.026901
05304	-0.040748	0.019126	9.915624	-0.002808	-0.018350	0.103022	0.999638	0.000081	0.000290	0.026898
05305	-0.013252	0.034181	9.942715	0.023978	-0.001855	0.130066	0.999638	0.000076	0.000283	0.026886
05306	-0.077595	0.043463	9.939233	-0.040972	0.004115	0.126859	0.999638	0.000066	0.000271	0.026894
05307	-0.003189	-0.000063	9.920572	0.035522	-0.035283	0.107759	0.999638	0.000076	0.000276	0.026912
05308	-0.049962	0.058476	9.966326	-0.013998	0.020434	0.153905	0.999638	0.000073	0.000286	0.026908
05309	-0.039785	0.018115	9.915630	-0.001841	-0.019228	0.103020	0.999638	0.000084	0.000278	0.026908
05310	-0.040082	0.024577	9.944182	-0.002451	-0.013001	0.131597	0.999638	0.000083	0.000278	0.026906
05311	-0.012056	0.033210	9.942720	0.025130	-0.002887	0.130063	0.999638	0.000087	0.000285	0.026904
05312	-0.039846	0.024255	9.944184	-0.002065	-0.013350	0.131597	0.999638	0.000086	0.000285	0.026902
05313	-0.048622	0.051262	9.937783	-0.012249	0.013147	0.125330	0.999638	0.000089	0.000290	0.026890
05314	-0.011033	0.026214	9.914171	0.026510	-0.009805	0.101484	0.999638	0.000090	0.000282	0.026908
05315	-0.047547	0.044278	9.909236	-0.011066	0.006394	0.096753	0.999638	0.000078	0.000278	0.026886
05316	-0.010448	0.025738	9.914172	0.026893	-0.010147	0.101482	0.999638	0.000090	0.000272	0.026905
05317	-0.039246	0.029923	9.972742	-0.001908	-0.007826	0.160174	0.999638	0.000089	0.000273	0.026912
05318	-0.037899	0.016697	9.915640	-0.000102	-0.020800	0.103017	0.999638	0.000094	0.000269	0.026911
05319	-0.037693	0.016660	9.915641	0.000091	-0.020971	0.103017	0.999638	0.000103	0.000271	0.026910
05320	-0.038003	0.023118	9.944194	-0.000521	-0.014750	0.131595	0.999638	0.000104	0.000262	0.026918
05321	-0.046043	0.043503	9.909246	-0.009925	0.005338	0.096755	0.999637	0.000099	0.000257	0.026926
05322	-0.009541	0.031466	9.942728	0.027240	-0.004779	0.130057	0.999638	0.000098	0.000256	0.026914
05323	-0.074185	0.040730	9.939271	-0.037723	0.001055	0.126872	0.999638	0.000095	0.000266	0.026911
05324	-0.045618	0.042869	9.909251	-0.009352	0.004812	0.096756	0.999638	0.000100	0.000263	0.026920
05325	-0.008559	0.024415	9.914178	0.028629	-0.011684	0.101476	0.999638	0.000099	0.000263	0.026909
05326	-0.008214	0.024186	9.914179	0.028822	-0.011856	0.101475	0.999638	0.000096	0.000247	0.026917
05327	-0.035767	0.015104	9.915650	0.001650	-0.022369	0.103014	0.999638	0.000095	0.000247	0.026916
05328	-0.016604	0.050968	9.907788	0.018780	0.014455	0.095217	0.999638	0.000100	0.000242	0.026905
05329	-0.035824	0.021415	9.944206	0.001230	-0.016326	0.131592	0.999638	0.000106	0.000238	0.026904
05330	-0.036158	0.027806	9.972760	0.000615	-0.010111	0.160172	0.999638	0.000105	0.000237	0.026893
05331	-0.044408	0.048321	9.937817	-0.008823	0.009972	0.125337	0.999638	0.000114	0.000242	0.026910
05332	-0.035296	0.021074	9.944208	0.001811	-0.016853	0.131592	0.999638	0.000113	0.000242	0.026908
05333	-0.043480	0.041543	9.909266	-0.008236	0.003907	0.096757	0.999637	0.000083	0.000208	0.026935
05334	-0.006906	0.029620	9.942736	0.028951	-0.006155	0.130051	0.999637	0.000078	0.000202	0.026933
05335	-0.042960	0.041105	9.909270	-0.007855	0.003554	0.096758	0.999637	0.000077	0.000202	0.026931
05336	-0.042750	0.040960	9.909272	-0.007664	0.003378	0.096758	0.999637	0.000082	0.000199	0.026940
05337	-0.034190	0.020249	9.944214	0.002176	-0.017050	0.131591	0.999637	0.000086	0.000207	0.026947
05338	-0.033955	0.020107	9.944215	0.002370	-0.017225	0.131591	0.999637	0.000087	0.000194	0.026928
05339	-0.005813	0.028921	9.942739	0.029913	-0.007013	0.130048	0.999637	0.000096	0.000199	0.026945
05340	-0.070466	0.038104	9.939309	-0.035065	-0.001329	0.126882	0.999637	0.000089	0.000203	0.026942
05341	-0.041844	0.040268	9.909279	-0.006712	0.002503	0.096759	0.999637	0.000094	0.000199	0.026941
05342	-0.033142	0.019578	9.944219	0.003144	-0.017923	0.131589	0.999637	0.000100	0.000195	0.026940
05343	-0.041870	0.046526	9.937837	-0.007147	0.008536	0.125340	0.999637	0.000094	0.000189	0.026939
05344	-0.004800	0.027992	9.942742	0.030874	-0.007868	0.130044	0.999637	0.000087	0.000194	0.026945
05345	-0.042099	0.052640	9.966395	-0.007582	0.014569	0.153922	0.999637	0.000103	0.000191	0.026936
05346	-0.059681	0.003375	9.917147	-0.022607	-0.035416	0.104551	0.999637	0.000089	0.000201	0.026941
05347	-0.040770	0.039098	9.909288	-0.005567	0.001455	0.096760	0.999637	0.000088	0.000202	0.026949
05348	-0.068936	0.036507	9.939325	-0.033531	-0.002759	0.126887	0.999637	0.000089	0.000192	0.026948
05349	-0.031330	0.011514	9.915670	0.005319	-0.025520	0.103005	0.999637	0.000080	0.000207	0.026944
05350	-0.031882	0.017754	9.944226	0.004696	-0.019314	0.131586	0.999637	0.000078	0.000208	0.026951
05351	-0.003913	0.026532	9.942747	0.032223	-0.009062	0.130039	0.999637	0.000082	0.000214	0.026949
05352	-0.040109	0.038206	9.909294	-0.004615	0.000577	0.096760	0.999637	0.000098	0.000213	0.026958
05353	-0.031364	0.017414	9.944229	0.005277	-0.019839	0.131585	0.999637	0.000082	0.000205	0.026956
05354	-0.067456	0.028820	9.910780	-0.031564	-0.010212	0.098308	0.999637	0.000091	0.000207	0.026955
05355	-0.011105	0.039978	9.879260	0.024107	0.004116	0.066630	0.999636	0.000078	0.000217	0.026961
05356	-0.067961	0.034825	9.939338	-0.031995	-0.004197	0.126892	0.999636	0.000081	0.000225	0.026968
05357	-0.059431	0.014103	9.974270	-0.022090	-0.024613	0.161714	0.999636	0.000084	0.000231	0.026966
05358	-0.039325	0.037048	9.909301	-0.003469	-0.000474	0.096761	0.999636	0.000090	0.000227	0.026965
05359	-0.030613	0.016304	9.944233	0.006445	-0.020885	0.131582	0.999636	0.000089	0.000227	0.026963
05360	-0.039393	0.043127	9.937862	-0.003905	0.005552	0.125344	0.999636	0.000079	0.000216	0.026971
05361	-0.030193	0.015743	9.944235	0.006832	-0.021231	0.131581	0.999636	0.000080	0.000233	0.026967
05362	-0.029495	0.009068	9.915678	0.007846	-0.027779	0.102997	0.999636	0.000081	0.000223	0.026967
05363	-0.038093	0.036030	9.909310	-0.002513	-0.001342	0.096761	0.999636	0.000084	0.000203	0.026977
05364	-0.009983	0.044932	9.907826	0.024993	0.008958	0.095210	0.999636	0.000092	0.000215	0.026965
05365	-0.066734	0.039936	9.967913	-0.031092	0.000572	0.155480	0.999636	0.000097	0.000211	0.026973
05366	-0.028469	0.008578	9.915682	0.008621	-0.028472	0.102994	0.999636	0.000090	0.000216	0.026970
05367	-0.037440	0.035423	9.909315	-0.001753	-0.002035	0.096761	0.999636	0.000088	0.000217	0.026978
05368	-0.009493	0.044261	9.907829	0.025748	0.008280	0.095209	0.999636	0.000092	0.000223	0.026976
05369	-0.074606	0.059801	9.932995	-0.040077	0.020095	0.120667	0.999636	0.000099	0.000210	0.026986
05370	-0.000598	0.023431	9.942755	0.035886	-0.012292	0.130023	0.999636	0.000094	0.000230	0.026972
05371	-0.037463	0.041312	9.937877	-0.001807	0.003634	0.125346	0.999636	0.000095	0.000220	0.026972
05372	-0.028014	0.013974	9.944244	0.008970	-0.023139	0.131575	0.999636	0.000090	0.000215	0.026979
05373	-0.036276	0.034381	9.909323	-0.000605	-0.003081	0.096761	0.999636	0.000095	0.000211	0.026978
05374	-0.008249	0.043364	9.907835	0.026888	0.007255	0.095206	0.999636	0.000104	0.000214	0.026987
05375	-0.063767	0.025223	9.910814	-0.027522	-0.013942	0.098316	0.999636	0.000103	0.000214	0.026985
05376	-0.035721	0.034210	9.909325	-0.000031	-0.003602	0.096761	0.999636	0.000119	0.000211	0.026975
05377	-0.026971	0.013416	9.944248	0.009939	-0.024006	0.131572	0.999636	0.000102	0.000212	0.026962
05378	-0.035284	0.033759	9.909328	0.000350	-0.003954	0.096761	0.999636	0.000113	0.000205	0.026972
05379	-0.026014	0.006562	9.915690	0.011149	-0.030715	0.102985	0.999636	0.000110	0.000218	0.026987
05380	-0.035730	0.039882	9.937889	-0.000097	0.002061	0.125346	0.999636	0.000103	0.000222	0.026984
05381	-0.026459	0.012520	9.944250	0.010711	-0.024698	0.131570	0.999636	0.000101	0.000223	0.026992
05382	-0.026350	0.012360	9.944251	0.010905	-0.024872	0.131569	0.999636	0.000105	0.000230	0.026990
05383	-0.025707	0.005742	9.915691	0.011928	-0.031405	0.102982	0.999636	0.000108	0.000236	0.026988
05384	-0.034728	0.032570	9.909334	0.001493	-0.004997	0.096760	0.999636	0.000097	0.000234	0.026985
05385	-0.026527	0.018342	9.972812	0.010665	-0.019033	0.160153	0.999636	0.000112	0.000234	0.026995
05386	-0.034219	0.032408	9.909337	0.001877	-0.005345	0.096760	0.999636	0.000113	0.000223	0.026994
05387	-0.061860	0.023138	9.910831	-0.025220	-0.016076	0.098319	0.999636	0.000110	0.000234	0.026991
05388	-0.062427	0.029353	9.939392	-0.025855	-0.009897	0.126905	0.999635	0.000103	0.000239	0.026997
05389	-0.033855	0.031717	9.909340	0.002448	-0.005864	0.096759	0.999635	0.000108	0.000235	0.026997
05390	-0.025103	0.011034	9.944256	0.012462	-0.026257	0.131563	0.999636	0.000112	0.000242	0.026995
05391	-0.034167	0.037961	9.937903	0.002007	0.000145	0.125346	0.999636	0.000111	0.000242	0.026993
05392	-0.033409	0.031364	9.909343	0.003026	-0.006386	0.096759	0.999636	0.000120	0.000243	0.026983
05393	-0.024796	0.010604	9.944257	0.013048	-0.026774	0.131561	0.999636	0.000111	0.000259	0.026988
05394	-0.034094	0.037385	9.937905	0.002578	-0.000379	0.125346	0.999635	0.000108	0.000272	0.027004
05395	-0.033945	0.037286	9.937906	0.002768	-0.000549	0.125346	0.999636	0.000119	0.000263	0.026994
05396	-0.033079	0.030709	9.909346	0.003788	-0.007077	0.096758	0.999636	0.000118	0.000263	0.026992
05397	-0.061300	0.027901	9.939403	-0.024123	-0.011489	0.126908	0.999636	0.000117	0.000263	0.026990
05398	-0.042629	0.063859	9.931560	-0.007340	0.025493	0.119134	0.999636	0.000114	0.000273	0.026987
05399	-0.033907	0.043117	9.966472	0.002701	0.005108	0.153934	0.999635	0.000119	0.000270	0.026996
05400	-0.032519	0.030090	9.909350	0.004553	-0.007769	0.096757	0.999636	0.000129	0.000272	0.026986
05401	-0.032883	0.036337	9.937913	0.003913	-0.001589	0.125346	0.999635	0.000113	0.000265	0.027002
05402	-0.022705	0.002432	9.915700	0.015628	-0.034673	0.102966	0.999636	0.000114	0.000253	0.026983
05403	-0.032323	0.035796	9.937917	0.004294	-0.001937	0.125345	0.999636	0.000111	0.000264	0.026980
05404	-0.032384	0.035664	9.937917	0.004485	-0.002112	0.125345	0.999636	0.000119	0.000278	0.026987
05405	-0.032331	0.035442	9.937918	0.004675	-0.002286	0.125345	0.999636	0.000107	0.000277	0.026994
05406	-0.059952	0.025996	9.939417	-0.022391	-0.013086	0.126910	0.999635	0.000106	0.000278	0.027001
05407	-0.031393	0.028435	9.909358	0.005887	-0.008982	0.096756	0.999635	0.000105	0.000278	0.026999
05408	-0.058929	0.018940	9.910858	-0.021176	-0.019788	0.098321	0.999635	0.000089	0.000270	0.026997
05409	-0.031458	0.034384	9.937924	0.005438	-0.002982	0.125344	0.999635	0.000105	0.000269	0.027006
05410	-0.021639	0.000759	9.915703	0.017183	-0.036051	0.102959	0.999635	0.000100	0.000291	0.027011
05411	-0.040772	0.061139	9.931585	-0.004903	0.023220	0.119141	0.999635	0.000099	0.000290	0.027000
05412	-0.031287	0.033934	9.937927	0.006014	-0.003503	0.125344	0.999635	0.000104	0.000286	0.027000
05413	-0.030415	0.027367	9.909364	0.007040	-0.010019	0.096754	0.999636	0.000109	0.000281	0.026990
05414	-0.020928	0.000166	9.915704	0.017967	-0.036738	0.102955	0.999635	0.000108	0.000282	0.026997
05415	-0.067678	0.051402	9.933092	-0.031392	0.011862	0.120711	0.999636	0.000107	0.000283	0.026996
05416	-0.021208	0.006078	9.944269	0.017526	-0.030741	0.131543	0.999635	0.000089	0.000286	0.027002
05417	-0.066859	0.044315	9.904532	-0.030177	0.005168	0.092122	0.999636	0.000103	0.000293	0.026982
05418	-0.021514	0.012309	9.972834	0.017082	-0.024745	0.160132	0.999635	0.000104	0.000284	0.027000
05419	-0.029930	0.032802	9.937935	0.007359	-0.004718	0.125343	0.999636	0.000114	0.000285	0.026980
05420	-0.001805	0.041864	9.936434	0.034788	0.005782	0.123772	0.999636	0.000111	0.000268	0.026980
05421	-0.028033	0.019377	9.880809	0.009415	-0.017745	0.068160	0.999636	0.000099	0.000267	0.026987
05422	-0.029106	0.032076	9.937939	0.007935	-0.005245	0.125342	0.999636	0.000103	0.000274	0.026985
05423	-0.056766	0.022721	9.939443	-0.019106	-0.016099	0.126913	0.999636	0.000101	0.000274	0.026983
05424	-0.028787	0.031882	9.937941	0.008319	-0.005589	0.125341	0.999636	0.000118	0.000272	0.026984
05425	-0.028619	0.031678	9.937942	0.008513	-0.005763	0.125341	0.999636	0.000100	0.000275	0.026990
05426	-0.056888	0.028684	9.968012	-0.019362	-0.010299	0.155505	0.999635	0.000109	0.000280	0.027007
05427	-0.028250	0.031332	9.937944	0.008897	-0.006114	0.125341	0.999636	0.000110	0.000267	0.026988
05428	-0.055083	0.015517	9.910886	-0.017300	-0.023325	0.098321	0.999635	0.000116	0.000264	0.026997
05429	-0.037074	0.058156	9.931617	-0.001505	0.020064	0.119149	0.999636	0.000119	0.000270	0.026986
05430	-0.026965	0.024433	9.909382	0.010314	-0.012968	0.096748	0.999636	0.000114	0.000264	0.026984
05431	-0.017397	-0.002856	9.915711	0.021300	-0.039665	0.102937	0.999636	0.000113	0.000264	0.026983
05432	-0.064273	0.048378	9.933130	-0.028162	0.008819	0.120724	0.999636	0.000123	0.000267	0.026991
05433	-0.054805	0.021069	9.939458	-0.017171	-0.017878	0.126913	0.999636	0.000105	0.000268	0.026978
05434	-0.016861	-0.003460	9.915711	0.021886	-0.040181	0.102933	0.999636	0.000116	0.000261	0.026988
05435	-0.035288	0.050430	9.903063	0.000459	0.012682	0.090558	0.999635	0.000105	0.000261	0.027004
05436	-0.053582	0.013885	9.910896	-0.015754	-0.024740	0.098320	0.999636	0.000108	0.000267	0.026993
05437	-0.026964	0.035960	9.966522	0.009975	-0.001527	0.153930	0.999636	0.000111	0.000273	0.026991
05438	-0.044648	-0.006955	9.945787	-0.005384	-0.045281	0.133098	0.999636	0.000111	0.000273	0.026989
05439	-0.025442	0.022549	9.909390	0.012039	-0.014529	0.096743	0.999636	0.000099	0.000271	0.026987
05440	-0.025815	0.028880	9.937958	0.011391	-0.008377	0.125336	0.999636	0.000115	0.000269	0.026978
05441	-0.035029	0.055814	9.931638	0.000754	0.017959	0.119153	0.999636	0.000108	0.000275	0.026994
05442	-0.025512	0.028413	9.937960	0.011777	-0.008725	0.125336	0.999636	0.000096	0.000271	0.026973
05443	-0.025429	0.028193	9.937961	0.011971	-0.008894	0.125335	0.999636	0.000104	0.000285	0.026980
05444	-0.062457	0.045790	9.933153	-0.025882	0.006679	0.120732	0.999636	0.000098	0.000280	0.026988
05445	-0.024988	0.027804	9.937963	0.012357	-0.009236	0.125334	0.999636	0.000099	0.000269	0.026978
05446	-0.024608	0.027744	9.937965	0.012549	-0.009410	0.125334	0.999636	0.000111	0.000260	0.026979
05447	-0.032559	0.041695	9.874513	0.003575	0.004282	0.061966	0.999636	0.000103	0.000265	0.026976
05448	-0.014905	0.000254	9.944282	0.023789	-0.036252	0.131511	0.999636	0.000096	0.000269	0.026973
05449	-0.033537	0.054203	9.931652	0.002267	0.016577	0.119155	0.999636	0.000112	0.000268	0.026983
05450	-0.061795	0.051214	9.961734	-0.025583	0.011941	0.149330	0.999636	0.000098	0.000278	0.026989
05451	-0.061106	0.044525	9.933168	-0.024548	0.005446	0.120736	0.999636	0.000108	0.000278	0.026969
05452	-0.023124	0.020199	9.909401	0.014549	-0.016759	0.096737	0.999636	0.000103	0.000273	0.026977
05453	-0.024112	0.032878	9.966540	0.013054	-0.004295	0.153926	0.999636	0.000102	0.000273	0.026976
05454	-0.051124	0.016949	9.939485	-0.013099	-0.021581	0.126912	0.999636	0.000105	0.000280	0.026974
05455	-0.023879	0.032562	9.966541	0.013439	-0.004644	0.153925	0.999636	0.000104	0.000280	0.026972
05456	-0.032562	0.052850	9.931663	0.003593	0.015356	0.119157	0.999636	0.000097	0.000286	0.026979
05457	-0.023005	0.025738	9.937974	0.014668	-0.011304	0.125329	0.999636	0.000112	0.000285	0.026989
05458	-0.051029	0.022860	9.968059	-0.013169	-0.015972	0.155507	0.999636	0.000114	0.000272	0.026970
05459	-0.031937	0.052532	9.931666	0.004159	0.014836	0.119157	0.999636	0.000110	0.000285	0.026985
05460	-0.022382	0.025256	9.937976	0.015246	-0.011824	0.125328	0.999636	0.000105	0.000278	0.026975
05461	-0.022185	0.024947	9.937978	0.015439	-0.011998	0.125327	0.999636	0.000098	0.000283	0.026982
05462	-0.058564	0.035852	9.904619	-0.021605	-0.002824	0.092146	0.999636	0.000093	0.000278	0.026990
05463	0.005285	0.040233	9.965033	0.042156	0.004793	0.152338	0.999636	0.000096	0.000284	0.026979
05464	-0.048754	0.008435	9.910927	-0.010310	-0.029659	0.098314	0.999636	0.000091	0.000278	0.026977
05465	-0.030808	0.051055	9.931678	0.005298	0.013792	0.119158	0.999636	0.000096	0.000274	0.026977
05466	-0.021241	0.023893	9.937982	0.016407	-0.012860	0.125325	0.999636	0.000093	0.000285	0.026974
05467	-0.049504	0.020665	9.968072	-0.011420	-0.017561	0.155507	0.999636	0.000081	0.000285	0.026990
05468	-0.021053	0.023300	9.937984	0.016793	-0.013204	0.125323	0.999636	0.000085	0.000291	0.026989
05469	-0.058120	0.040782	9.933202	-0.021113	0.002253	0.120745	0.999636	0.000083	0.000292	0.026987
05470	-0.048486	0.013575	9.939504	-0.009988	-0.024397	0.126909	0.999636	0.000082	0.000293	0.026995
05471	-0.030852	0.056214	9.960257	0.005584	0.019057	0.147756	0.999636	0.000084	0.000310	0.026992
05472	-0.047925	0.006811	9.910933	-0.008751	-0.031058	0.098311	0.999635	0.000087	0.000317	0.026999
05473	-0.057955	0.040034	9.933206	-0.020348	0.001544	0.120747	0.999635	0.000080	0.000322	0.026997
05474	-0.020723	0.022025	9.937988	0.017952	-0.014236	0.125320	0.999635	0.000066	0.000331	0.027003
05475	-0.048351	0.012423	9.939506	-0.009018	-0.025275	0.126908	0.999636	0.000076	0.000332	0.026983
05476	-0.048242	0.012369	9.939507	-0.008823	-0.025452	0.126908	0.999636	0.000079	0.000339	0.026991
05477	-0.002721	0.064446	9.958747	0.033876	0.028888	0.146169	0.999636	0.000080	0.000329	0.026990
05478	-0.019992	0.021494	9.937990	0.018721	-0.014927	0.125318	0.999636	0.000086	0.000325	0.026990
05479	-0.056925	0.038902	9.933216	-0.019206	0.000475	0.120749	0.999635	0.000080	0.000320	0.026998
05480	-0.056600	0.038776	9.933218	-0.019015	0.000297	0.120750	0.999636	0.000092	0.000311	0.026989
05481	-0.018560	0.014603	9.909421	0.020152	-0.021747	0.096717	0.999635	0.000085	0.000317	0.027005
05482	-0.046757	0.011376	9.939515	-0.007657	-0.026513	0.126906	0.999636	0.000084	0.000316	0.026994
05483	-0.027739	0.041019	9.903130	0.009557	0.004364	0.090561	0.999636	0.000072	0.000314	0.026992
05484	-0.046200	0.010834	9.939518	-0.007270	-0.026866	0.126905	0.999636	0.000080	0.000300	0.026993
05485	-0.027694	0.047111	9.931706	0.009084	0.010319	0.119160	0.999636	0.000079	0.000300	0.026991
05486	-0.055279	0.037530	9.933231	-0.017870	-0.000762	0.120752	0.999636	0.000082	0.000306	0.026989
05487	-0.027457	0.046796	9.931708	0.009462	0.009969	0.119160	0.999636	0.000081	0.000305	0.026979
05488	-0.017706	0.019676	9.937999	0.020648	-0.016654	0.125311	0.999636	0.000087	0.000303	0.026987
05489	-0.027073	0.046453	9.931711	0.009843	0.009620	0.119160	0.999636	0.000079	0.000307	0.026985
05490	-0.026827	0.046099	9.931713	0.010033	0.009446	0.119160	0.999636	0.000070	0.000296	0.026993
05491	-0.044705	0.009497	9.939526	-0.005906	-0.028094	0.126903	0.999636	0.000079	0.000298	0.026993
05492	-0.026381	0.045712	9.931716	0.010413	0.009101	0.119160	0.999636	0.000068	0.000296	0.026990
05493	-0.053876	0.035956	9.933244	-0.016532	-0.002007	0.120754	0.999636	0.000067	0.000296	0.026989
05494	-0.026063	0.045247	9.931719	0.010792	0.008751	0.119160	0.999636	0.000070	0.000302	0.026978
05495	-0.044078	0.008662	9.939530	-0.005129	-0.028800	0.126901	0.999636	0.000069	0.000303	0.026986
05496	-0.025284	0.038539	9.903147	0.012027	0.002113	0.090559	0.999636	0.000077	0.000316	0.026984
05497	-0.016854	0.024174	9.966579	0.021538	-0.011911	0.153905	0.999635	0.000061	0.000310	0.027001
05498	-0.053252	0.034890	9.933251	-0.015571	-0.002889	0.120755	0.999635	0.000060	0.000311	0.027009
05499	-0.042794	0.001407	9.910958	-0.003490	-0.035788	0.098298	0.999635	0.000072	0.000302	0.027000
05500	-0.052697	0.034621	9.933255	-0.015190	-0.003242	0.120756	0.999635	0.000060	0.000300	0.026997
05501	-0.024778	0.043848	9.931729	0.012126	0.007537	0.119159	0.999635	0.000066	0.000296	0.026997
05502	-0.042031	0.000832	9.910962	-0.002902	-0.036319	0.098297	0.999636	0.000065	0.000296	0.026996
05503	-0.024227	0.043479	9.931732	0.012508	0.007191	0.119159	0.999635	0.000061	0.000281	0.027005
05504	-0.051622	0.033809	9.933264	-0.014420	-0.003954	0.120757	0.999636	0.000065	0.000286	0.026994
05505	-0.051436	0.033496	9.933266	-0.014229	-0.004129	0.120757	0.999635	0.000049	0.000280	0.027011
05506	-0.051208	0.033139	9.933268	-0.014037	-0.004307	0.120757	0.999635	0.000048	0.000281	0.027019
05507	-0.078704	0.023437	9.934801	-0.040958	-0.015466	0.122356	0.999635	0.000047	0.000280	0.027008
05508	-0.023173	0.042230	9.931740	0.013460	0.006323	0.119158	0.999635	0.000046	0.000281	0.027007
05509	-0.050605	0.032480	9.933273	-0.013463	-0.004839	0.120758	0.999635	0.000041	0.000274	0.027005
05510	-0.022636	0.041695	9.931743	0.013838	0.005975	0.119158	0.999635	0.000036	0.000268	0.027004
05511	-0.021772	0.035025	9.903168	0.014893	-0.000480	0.090555	0.999635	0.000035	0.000269	0.027003
05512	-0.067893	-0.004675	9.941082	-0.028908	-0.042787	0.128494	0.999635	0.000040	0.000265	0.027003
05513	0.006279	0.044312	9.901636	0.042378	0.010178	0.088954	0.999636	0.000044	0.000270	0.026992
05514	-0.021774	0.040970	9.931748	0.014603	0.005283	0.119157	0.999635	0.000034	0.000259	0.027000
05515	-0.049061	0.031170	9.933285	-0.012309	-0.005899	0.120759	0.999635	0.000035	0.000250	0.027018
05516	-0.048894	0.030965	9.933287	-0.012116	-0.006076	0.120759	0.999635	0.000032	0.000260	0.027007
05517	-0.020464	0.033811	9.903175	0.016036	-0.001512	0.090553	0.999635	0.000027	0.000254	0.027005
05518	-0.020226	0.033567	9.903176	0.016227	-0.001685	0.090553	0.999635	0.000026	0.000254	0.027004
05519	-0.039346	0.009824	9.968133	-0.001297	-0.026732	0.155493	0.999635	0.000036	0.000258	0.027013
05520	-0.020568	0.039794	9.931756	0.015746	0.004249	0.119156	0.999635	0.000035	0.000259	0.027020
05521	-0.048621	0.036527	9.961872	-0.012016	-0.000679	0.149363	0.999635	0.000040	0.000253	0.027002
05522	-0.048391	0.036384	9.961874	-0.011824	-0.000857	0.149363	0.999635	0.000039	0.000254	0.027010
05523	-0.046883	0.023361	9.904719	-0.009901	-0.013580	0.092155	0.999635	0.000040	0.000246	0.027029
05524	-0.019064	0.032714	9.903181	0.017380	-0.002715	0.090551	0.999635	0.000037	0.000256	0.027017
05525	-0.046528	0.022953	9.904721	-0.009512	-0.013928	0.092155	0.999635	0.000038	0.000246	0.027017
05526	-0.046297	0.022811	9.904723	-0.009320	-0.014104	0.092155	0.999635	0.000042	0.000252	0.027006
05527	-0.028764	0.065529	9.925504	0.005962	0.029445	0.113029	0.999635	0.000036	0.000246	0.027005
05528	-0.074093	0.019157	9.934845	-0.036880	-0.019237	0.122366	0.999635	0.000031	0.000240	0.027013
05529	-0.046270	0.028525	9.933307	-0.009605	-0.008355	0.120760	0.999635	0.000034	0.000246	0.027002
05530	-0.018005	0.031620	9.903187	0.018533	-0.003740	0.090548	0.999635	0.000042	0.000260	0.027010
05531	-0.046826	0.034643	9.961887	-0.010082	-0.002434	0.149365	0.999636	0.000030	0.000256	0.026989
05532	-0.045315	0.021572	9.904730	-0.008160	-0.015150	0.092155	0.999635	0.000036	0.000253	0.026998
05533	-0.055430	0.054770	9.927056	-0.019994	0.017331	0.114639	0.999635	0.000035	0.000253	0.026996
05534	-0.035272	-0.005765	9.910987	0.003379	-0.041891	0.098275	0.999636	0.000028	0.000257	0.026994
05535	-0.027426	0.063852	9.925519	0.007456	0.028057	0.113032	0.999636	0.000029	0.000247	0.026994
05536	-0.035838	0.006596	9.968149	0.002038	-0.029705	0.155484	0.999636	0.000026	0.000231	0.026994
05537	-0.044620	0.026928	9.933319	-0.008069	-0.009764	0.120760	0.999636	0.000029	0.000236	0.026983
05538	-0.054303	0.053568	9.927069	-0.019049	0.016442	0.114643	0.999636	0.000015	0.000246	0.026989
05539	-0.045361	0.032684	9.961901	-0.008550	-0.003851	0.149366	0.999636	0.000010	0.000268	0.026995
05540	-0.044655	0.026055	9.933321	-0.007491	-0.010293	0.120760	0.999636	0.000012	0.000257	0.026985
05541	-0.053462	0.046385	9.898493	-0.017617	0.009650	0.086038	0.999636	0.000010	0.000258	0.026993
05542	-0.016682	0.035271	9.931780	0.019955	0.000463	0.119149	0.999636	0.000007	0.000269	0.026991
05543	-0.053280	0.045895	9.898496	-0.017238	0.009299	0.086039	0.999635	0.000002	0.000263	0.026999
05544	-0.007356	0.014335	9.966610	0.030664	-0.019992	0.153868	0.999635	0.000010	0.000276	0.026997
05545	-0.054231	0.058396	9.955663	-0.018599	0.021471	0.143254	0.999635	0.000006	0.000260	0.026997
05546	-0.033908	-0.001980	9.939573	0.004861	-0.037713	0.126871	0.999635	0.000014	0.000274	0.027004
05547	-0.025811	0.061357	9.925539	0.009706	0.025976	0.113036	0.999636	0.000011	0.000282	0.026984
05548	-0.043544	0.024536	9.933330	-0.005952	-0.011693	0.120759	0.999636	0.000006	0.000277	0.026992
05549	-0.043304	0.024288	9.933331	-0.005759	-0.011869	0.120759	0.999636	0.000005	0.000277	0.026981
05550	-0.052839	0.051057	9.927090	-0.016781	0.014322	0.114650	0.999636	0.000010	0.000274	0.026990
05551	-0.015184	0.033618	9.931788	0.021679	-0.001082	0.119146	0.999636	0.000005	0.000267	0.026980
05552	-0.052409	0.050604	9.927095	-0.016400	0.013969	0.114651	0.999636	0.000002	0.000276	0.026968
05553	-0.042635	0.023518	9.933336	-0.004981	-0.012570	0.120759	0.999636	0.000006	0.000284	0.026977
05554	-0.052165	0.050176	9.927098	-0.016017	0.013615	0.114652	0.999636	-0.000004	0.000271	0.026966
05555	-0.014511	0.032756	9.931792	0.022447	-0.001769	0.119144	0.999636	0.000006	0.000275	0.026984
05556	-0.031663	-0.010439	9.910995	0.007704	-0.045709	0.098255	0.999636	-0.000008	0.000285	0.026990
05557	-0.041986	0.022532	9.933341	-0.004210	-0.013268	0.120758	0.999636	-0.000009	0.000284	0.026980
05558	-0.051592	0.049230	9.927106	-0.015260	0.012911	0.114654	0.999636	-0.000010	0.000285	0.026988
05559	-0.004907	0.011409	9.966615	0.033594	-0.022555	0.153853	0.999636	-0.000000	0.000288	0.026988
05560	-0.051890	0.055488	9.955692	-0.015749	0.018812	0.143264	0.999636	0.000005	0.000284	0.026987
05561	-0.041280	0.021992	9.933345	-0.003429	-0.013969	0.120758	0.999636	-0.000002	0.000289	0.026986
05562	-0.050953	0.048623	9.927112	-0.014493	0.012206	0.114656	0.999636	-0.000003	0.000290	0.026994
05563	-0.014103	0.037488	9.960383	0.023116	0.003109	0.147749	0.999636	-0.000017	0.000297	0.026981
05564	-0.050047	0.041699	9.898532	-0.013242	0.005603	0.086048	0.999636	-0.000005	0.000290	0.026991
05565	-0.040640	0.021114	9.933350	-0.002657	-0.014669	0.120757	0.999635	-0.000006	0.000291	0.026999
05566	-0.040472	0.020910	9.933351	-0.002464	-0.014845	0.120757	0.999635	-0.000007	0.000292	0.026998
05567	-0.040251	0.020769	9.933352	-0.002270	-0.015019	0.120756	0.999635	-0.000001	0.000288	0.026998
05568	-0.040125	0.020611	9.933353	-0.002077	-0.015195	0.120756	0.999636	-0.000004	0.000298	0.026986
05569	-0.022343	0.057043	9.925573	0.013856	0.022166	0.113040	0.999636	-0.000001	0.000305	0.026994
05570	-0.039903	0.020291	9.933354	-0.001692	-0.015550	0.120756	0.999636	0.000000	0.000295	0.026994
05571	-0.067221	0.010378	9.934907	-0.028517	-0.026934	0.122375	0.999635	-0.000001	0.000296	0.027002
05572	-0.011217	0.023249	9.903220	0.026591	-0.010938	0.090525	0.999636	-0.000001	0.000295	0.026991
05573	-0.049091	0.046585	9.927131	-0.013024	0.009287	0.114662	0.999637	0.000046	0.000262	0.026924
05574	-0.038367	0.013070	9.904774	-0.000661	-0.023468	0.092142	0.999637	0.000041	0.000257	0.026932
05575	-0.048741	0.046177	9.927135	-0.012646	0.008930	0.114662	0.999638	0.000049	0.000269	0.026921
05576	-0.011229	0.028821	9.931809	0.025861	-0.006360	0.119134	0.999638	0.000037	0.000267	0.026919
05577	-0.038668	0.018810	9.933362	-0.000961	-0.017754	0.120752	0.999638	0.000041	0.000273	0.026909
05578	-0.021473	0.061665	9.954172	0.014056	0.025867	0.141656	0.999638	0.000040	0.000274	0.026917
05579	-0.010250	0.021699	9.903225	0.027317	-0.013112	0.090520	0.999637	0.000026	0.000283	0.026923
05580	-0.048215	0.044932	9.927143	-0.011696	0.008045	0.114664	0.999637	0.000031	0.000280	0.026923
05581	-0.048060	0.044834	9.927144	-0.011505	0.007871	0.114665	0.999638	0.000035	0.000286	0.026921
05582	0.017119	0.037399	9.930259	0.054020	0.003852	0.117509	0.999638	0.000040	0.000282	0.026921
05583	-0.037813	0.017722	9.933368	0.000201	-0.018805	0.120750	0.999638	0.000039	0.000282	0.026920
05584	-0.037625	0.017520	9.933369	0.000394	-0.018981	0.120750	0.999638	0.000039	0.000282	0.026909
05585	-0.037509	0.017361	9.933369	0.000586	-0.019155	0.120749	0.999638	0.000042	0.000289	0.026917
05586	-0.037392	0.017202	9.933370	0.000779	-0.019332	0.120749	0.999638	0.000041	0.000288	0.026907
05587	-0.047187	0.043742	9.927153	-0.010366	0.006812	0.114667	0.999638	0.000027	0.000298	0.026913
05588	-0.047117	0.043413	9.927155	-0.010176	0.006635	0.114667	0.999638	0.000026	0.000299	0.026921
05589	-0.065234	0.012986	9.963516	-0.026514	-0.024886	0.150984	0.999638	0.000031	0.000295	0.026921
05590	-0.019063	0.052882	9.925603	0.017196	0.017557	0.113044	0.999638	0.000026	0.000289	0.026920
05591	-0.036500	0.015974	9.933375	0.001747	-0.020202	0.120747	0.999637	0.000025	0.000290	0.026928
05592	-0.008715	0.025638	9.931820	0.028931	-0.009102	0.119123	0.999638	0.000031	0.000286	0.026918
05593	-0.045905	0.042511	9.927165	-0.009229	0.005759	0.114669	0.999637	0.000026	0.000280	0.026927
05594	-0.035755	0.015404	9.933379	0.002328	-0.020727	0.120746	0.999638	0.000025	0.000280	0.026916
05595	-0.045492	0.042060	9.927169	-0.008845	0.005410	0.114669	0.999637	0.000024	0.000281	0.026924
05596	-0.036502	0.027775	9.990559	0.000953	-0.008620	0.177973	0.999637	0.000027	0.000260	0.026926
05597	-0.061757	-0.001384	9.906354	-0.023193	-0.038767	0.093756	0.999637	0.000020	0.000264	0.026923
05598	-0.017697	0.057655	9.954204	0.017820	0.022406	0.141658	0.999637	0.000025	0.000261	0.026923
05599	-0.033799	0.008097	9.904796	0.004178	-0.027819	0.092130	0.999638	0.000024	0.000261	0.026922
05600	-0.017360	0.057361	9.954206	0.018197	0.022062	0.141658	0.999638	0.000028	0.000266	0.026911
05601	-0.034271	0.014193	9.933386	0.003681	-0.021944	0.120743	0.999638	0.000031	0.000274	0.026919
05602	-0.061580	0.004107	9.934948	-0.023101	-0.033432	0.122370	0.999638	0.000022	0.000260	0.026909
05603	-0.044307	0.046874	9.955773	-0.008215	0.010228	0.143286	0.999638	0.000021	0.000260	0.026898
05604	-0.005894	0.023430	9.931827	0.031233	-0.011148	0.119114	0.999638	0.000033	0.000253	0.026908
05605	-0.043194	0.040287	9.927186	-0.006948	0.003656	0.114671	0.999638	0.000025	0.000258	0.026916
05606	-0.043706	0.046279	9.955778	-0.007643	0.009700	0.143287	0.999638	0.000014	0.000256	0.026914
05607	-0.005343	0.022621	9.931829	0.031812	-0.011657	0.119112	0.999638	0.000013	0.000255	0.026903
05608	-0.032698	0.012561	9.933394	0.005037	-0.023162	0.120740	0.999638	0.000012	0.000256	0.026902
05609	-0.052497	0.065981	9.920993	-0.017607	0.029242	0.108605	0.999638	0.000005	0.000260	0.026900
05610	-0.059204	-0.004179	9.906369	-0.020653	-0.041070	0.093753	0.999638	0.000006	0.000250	0.026900
05611	-0.014463	0.048582	9.925633	0.021155	0.013945	0.113043	0.999638	0.000005	0.000249	0.026890
05612	-0.059352	0.001851	9.934963	-0.021149	-0.035207	0.122368	0.999638	0.000011	0.000247	0.026908
05613	-0.031551	0.011544	9.933398	0.006008	-0.024028	0.120737	0.999638	0.000005	0.000241	0.026907
05614	-0.041951	0.044493	9.955794	-0.006122	0.008295	0.143289	0.999638	0.000005	0.000241	0.026906
05615	-0.031068	0.011053	9.933401	0.006392	-0.024377	0.120736	0.999638	-0.000001	0.000235	0.026905
05616	-0.031358	0.017076	9.961994	0.005699	-0.018338	0.149352	0.999638	-0.000010	0.000222	0.026904
05617	-0.040913	0.043700	9.955802	-0.005553	0.007767	0.143290	0.999638	-0.000002	0.000209	0.026915
05618	-0.012615	0.047083	9.925643	0.022477	0.012744	0.113041	0.999638	-0.000007	0.000229	0.026902
05619	-0.067478	0.027082	9.928781	-0.031236	-0.010172	0.116306	0.999638	-0.000004	0.000207	0.026894
05620	-0.050324	0.069984	9.949615	-0.016441	0.033509	0.137231	0.999638	-0.000007	0.000218	0.026892
05621	-0.038942	0.030333	9.898623	-0.003014	-0.005368	0.086057	0.999639	0.000003	0.000220	0.026882
05622	-0.030084	0.016116	9.961999	0.006863	-0.019393	0.149349	0.999638	0.000002	0.000221	0.026890
05623	-0.076161	0.046943	9.894005	-0.041044	0.009163	0.081633	0.999638	0.000002	0.000221	0.026889
05624	-0.012270	0.052286	9.954242	0.022723	0.017912	0.141657	0.999638	-0.000016	0.000224	0.026896
05625	-0.029686	0.015321	9.962002	0.007450	-0.019914	0.149348	0.999639	-0.000002	0.000232	0.026877
05626	-0.048112	0.056251	9.892441	-0.013533	0.020024	0.080001	0.999638	0.000001	0.000212	0.026888
05627	-0.029095	0.015124	9.962004	0.007835	-0.020267	0.149347	0.999639	-0.000002	0.000222	0.026885
05628	-0.010925	0.045247	9.925653	0.024371	0.011015	0.113039	0.999639	-0.000009	0.000227	0.026883
05629	-0.065823	0.025108	9.928798	-0.029308	-0.011967	0.116310	0.999639	-0.000010	0.000227	0.026882
05630	-0.010691	0.044829	9.925655	0.024753	0.010673	0.113038	0.999638	-0.000007	0.000235	0.026890
05631	-0.038804	0.041012	9.955822	-0.002882	0.005294	0.143292	0.999638	-0.000014	0.000239	0.026888
05632	-0.037358	0.028161	9.898635	-0.000908	-0.007294	0.086056	0.999639	-0.000004	0.000241	0.026879
05633	-0.027861	0.007534	9.933413	0.009895	-0.027518	0.120725	0.999638	-0.000012	0.000247	0.026895
05634	-0.028607	0.013577	9.962007	0.009197	-0.021489	0.149343	0.999639	-0.000017	0.000267	0.026882
05635	-0.038036	0.033805	9.927231	-0.001229	-0.001614	0.114674	0.999638	-0.000018	0.000268	0.026890
05636	-0.037755	0.033622	9.927233	-0.001038	-0.001790	0.114674	0.999639	-0.000016	0.000257	0.026881
05637	-0.037474	0.033438	9.927235	-0.000849	-0.001964	0.114674	0.999638	-0.000017	0.000258	0.026889
05638	-0.010574	0.049529	9.954258	0.025371	0.015499	0.141655	0.999638	-0.000020	0.000269	0.026887
05639	-0.036012	0.020313	9.870048	0.001321	-0.014715	0.057436	0.999638	-0.000021	0.000269	0.026886
05640	-0.037779	0.039090	9.955833	-0.001168	0.003710	0.143294	0.999638	-0.000026	0.000264	0.026895
05641	-0.026770	0.005867	9.933418	0.011448	-0.028909	0.120719	0.999638	-0.000010	0.000262	0.026886
05642	-0.047615	0.065744	9.949657	-0.012320	0.029602	0.137249	0.999638	-0.000015	0.000284	0.026892
05643	-0.036812	0.032486	9.927240	0.000301	-0.003016	0.114674	0.999639	-0.000003	0.000275	0.026884
05644	-0.026448	0.005609	9.933419	0.012033	-0.029433	0.120717	0.999639	-0.000004	0.000275	0.026882
05645	-0.036333	0.032269	9.927243	0.000683	-0.003364	0.114674	0.999638	0.000001	0.000272	0.026892
05646	-0.036124	0.032129	9.927244	0.000874	-0.003540	0.114674	0.999638	0.000000	0.000273	0.026891
05647	-0.046052	0.058724	9.921070	-0.010484	0.022521	0.108633	0.999638	-0.000000	0.000273	0.026890
05648	-0.025644	0.004823	9.933421	0.012814	-0.030127	0.120714	0.999638	-0.000012	0.000271	0.026888
05649	-0.062822	0.021507	9.928826	-0.025456	-0.015543	0.116315	0.999638	0.000009	0.000249	0.026900
05650	-0.045936	0.064612	9.949672	-0.010818	0.028184	0.137255	0.999638	0.000003	0.000272	0.026906
05651	-0.025623	0.010805	9.962019	0.012502	-0.024456	0.149332	0.999638	0.000005	0.000259	0.026888
05652	-0.007256	0.041163	9.925674	0.028924	0.006893	0.113030	0.999638	0.000010	0.000257	0.026897
05653	-0.033769	0.024686	9.898658	0.003113	-0.010958	0.086052	0.999638	0.000011	0.000247	0.026907
05654	-0.034833	0.037172	9.955851	0.001511	0.001249	0.143294	0.999638	0.000011	0.000248	0.026906
05655	-0.034657	0.036969	9.955853	0.001701	0.001076	0.143294	0.999638	0.000010	0.000248	0.026905
05656	-0.005645	0.034030	9.897082	0.030581	0.000020	0.084407	0.999638	-0.000002	0.000246	0.026903
05657	-0.034128	0.036433	9.955856	0.002083	0.000722	0.143294	0.999638	0.000006	0.000232	0.026913
05658	-0.043308	0.056871	9.921094	-0.008418	0.020578	0.108639	0.999638	0.000016	0.000235	0.026913
05659	-0.033009	0.029884	9.927262	0.003364	-0.005818	0.114672	0.999637	0.000004	0.000235	0.026930
05660	-0.032947	0.029663	9.927263	0.003555	-0.005994	0.114672	0.999638	0.000012	0.000247	0.026919
05661	-0.060317	0.019561	9.928845	-0.023142	-0.017685	0.116318	0.999638	0.000017	0.000243	0.026919
05662	-0.032635	0.029472	9.927264	0.003937	-0.006342	0.114672	0.999637	0.000016	0.000244	0.026927
05663	-0.033158	0.035705	9.955862	0.003232	-0.000325	0.143294	0.999637	0.000026	0.000247	0.026927
05664	-0.069304	0.039667	9.894087	-0.033271	0.001813	0.081666	0.999637	0.000025	0.000248	0.026935
05665	-0.032113	0.029142	9.927267	0.004516	-0.006861	0.114671	0.999638	0.000031	0.000242	0.026917
05666	-0.004878	0.045438	9.954282	0.030688	0.010683	0.141646	0.999637	0.000034	0.000223	0.026928
05667	-0.069043	0.045561	9.922693	-0.033600	0.007458	0.110291	0.999637	0.000031	0.000234	0.026926
05668	-0.031218	0.028658	9.927271	0.005091	-0.007387	0.114670	0.999638	0.000033	0.000222	0.026917
05669	-0.030894	0.028539	9.927273	0.005280	-0.007559	0.114670	0.999637	0.000038	0.000219	0.026926
05670	-0.030643	0.028462	9.927274	0.005471	-0.007734	0.114670	0.999637	0.000044	0.000215	0.026925
05671	-0.040612	0.055092	9.921115	-0.005972	0.018294	0.108645	0.999637	0.000043	0.000216	0.026925
05672	-0.030981	0.034491	9.955874	0.004954	-0.001905	0.143293	0.999637	0.000046	0.000222	0.026923
05673	-0.003346	0.044275	9.954288	0.032014	0.009484	0.141643	0.999637	0.000030	0.000216	0.026940
05674	-0.047843	-0.002927	9.963622	-0.009885	-0.040016	0.150965	0.999637	0.000040	0.000218	0.026940
05675	-0.039939	0.054175	9.921123	-0.005217	0.017595	0.108647	0.999637	0.000029	0.000217	0.026939
05676	-0.029623	0.027253	9.927280	0.006625	-0.008778	0.114668	0.999637	0.000043	0.000226	0.026938
05677	-0.029634	0.027183	9.927280	0.006814	-0.008949	0.114668	0.999637	0.000039	0.000236	0.026936
05678	-0.057013	0.016852	9.928870	-0.019855	-0.020702	0.116319	0.999637	0.000039	0.000236	0.026935
05679	-0.039559	0.053584	9.921128	-0.004470	0.016893	0.108648	0.999637	0.000044	0.000232	0.026935
05680	-0.039396	0.053381	9.921129	-0.004281	0.016717	0.108649	0.999637	0.000037	0.000238	0.026942
05681	-0.028895	0.026441	9.927285	0.007576	-0.009647	0.114667	0.999637	0.000045	0.000222	0.026934
05682	-0.028107	0.019965	9.898686	0.008672	-0.015997	0.086042	0.999637	0.000039	0.000245	0.026940
05683	-0.065729	0.036478	9.894124	-0.029664	-0.001575	0.081678	0.999637	0.000051	0.000236	0.026932
05684	-0.018919	0.005767	9.962038	0.018932	-0.030181	0.149307	0.999637	0.000061	0.000238	0.026932
05685	-0.065387	0.036448	9.894126	-0.029284	-0.001931	0.081679	0.999637	0.000064	0.000245	0.026931
05686	-0.028883	0.032267	9.955887	0.007633	-0.004344	0.143290	0.999637	0.000059	0.000239	0.026930
05687	-0.027334	0.019326	9.898689	0.009633	-0.016856	0.086040	0.999637	0.000052	0.000243	0.026928
05688	-0.039498	0.064866	9.978340	-0.004586	0.027660	0.165902	0.999637	0.000062	0.000246	0.026928
05689	-0.017645	-0.001438	9.933440	0.020811	-0.037211	0.120676	0.999637	0.000052	0.000262	0.026934
05690	-0.027782	0.025151	9.927291	0.009304	-0.011208	0.114664	0.999637	0.000064	0.000253	0.026926
05691	-0.037769	0.051714	9.921144	-0.002210	0.014792	0.108653	0.999637	0.000053	0.000253	0.026942
05692	-0.054776	0.014608	9.928886	-0.017152	-0.023186	0.116318	0.999637	0.000063	0.000254	0.026933
05693	-0.027115	0.024631	9.927294	0.009878	-0.011731	0.114663	0.999637	0.000058	0.000248	0.026932
05694	-0.054305	0.014220	9.928889	-0.016767	-0.023539	0.116318	0.999637	0.000057	0.000248	0.026931
05695	0.001428	0.027941	9.897102	0.038002	-0.006605	0.084379	0.999637	0.000045	0.000246	0.026930
05696	-0.026512	0.023880	9.927298	0.010452	-0.012251	0.114661	0.999637	0.000055	0.000250	0.026939
05697	-0.027056	0.029927	9.955900	0.009738	-0.006261	0.143288	0.999637	0.000037	0.000251	0.026927
05698	-0.064044	0.039783	9.922752	-0.027723	0.001918	0.110312	0.999637	0.000034	0.000263	0.026943
05699	-0.054263	0.019151	9.957496	-0.016702	-0.018259	0.144945	0.999637	0.000035	0.000252	0.026926
05700	-0.036055	0.049601	9.921162	-0.000509	0.013216	0.108655	0.999637	0.000037	0.000242	0.026935
05701	-0.035786	0.049418	9.921164	-0.000319	0.013044	0.108655	0.999637	0.000036	0.000243	0.026934
05702	-0.063712	0.045327	9.951363	-0.027864	0.007368	0.138941	0.999637	0.000035	0.000243	0.026934
05703	-0.025033	0.022305	9.927305	0.011804	-0.013464	0.114658	0.999637	0.000036	0.000233	0.026934
05704	-0.062535	0.038693	9.922765	-0.026576	0.000850	0.110315	0.999637	0.000040	0.000239	0.026933
05705	-0.035522	0.055019	9.949773	-0.000477	0.018505	0.137284	0.999637	0.000037	0.000223	0.026933
05706	-0.052502	0.017817	9.957508	-0.015349	-0.019502	0.144944	0.999637	0.000032	0.000245	0.026939
05707	-0.034641	0.048230	9.921173	0.000810	0.011996	0.108657	0.999638	0.000033	0.000233	0.026921
05708	-0.033620	0.041810	9.892572	0.001909	0.005662	0.080029	0.999638	0.000039	0.000229	0.026921
05709	-0.024339	0.027573	9.955914	0.012047	-0.008346	0.143284	0.999638	0.000040	0.000219	0.026922
05710	-0.024110	0.027328	9.955915	0.012240	-0.008521	0.143283	0.999637	0.000033	0.000224	0.026929
05711	-0.050638	0.010492	9.928913	-0.013466	-0.026546	0.116316	0.999638	0.000028	0.000217	0.026919
05712	-0.050417	0.010352	9.928914	-0.013272	-0.026724	0.116315	0.999637	0.000038	0.000221	0.026928
05713	-0.033897	0.053339	9.949788	0.001033	0.017092	0.137286	0.999638	0.000020	0.000221	0.026917
05714	-0.033093	0.046775	9.921186	0.002134	0.010761	0.108658	0.999637	0.000030	0.000226	0.026935
05715	-0.049911	0.009740	9.928917	-0.012692	-0.027260	0.116315	0.999637	0.000031	0.000216	0.026935
05716	-0.033205	0.052770	9.949793	0.001601	0.016565	0.137287	0.999637	0.000026	0.000211	0.026944
05717	-0.049239	0.009285	9.928921	-0.012301	-0.027616	0.116314	0.999637	0.000028	0.000200	0.026945
05718	-0.021610	0.019290	9.927320	0.014693	-0.016077	0.114651	0.999637	0.000020	0.000206	0.026952
05719	-0.059880	0.041841	9.951402	-0.024631	0.004313	0.138951	0.999637	0.000026	0.000202	0.026952
05720	-0.003507	0.049627	9.890988	0.030980	0.015281	0.078365	0.999637	0.000025	0.000202	0.026951
05721	-0.058668	0.035281	9.922802	-0.023335	-0.002193	0.110323	0.999636	0.000033	0.000189	0.026962
05722	-0.030301	0.039236	9.892594	0.004564	0.003210	0.080029	0.999636	0.000043	0.000192	0.026962
05723	-0.058200	0.035060	9.922805	-0.022951	-0.002547	0.110324	0.999636	0.000031	0.000190	0.026960
05724	-0.031371	0.051358	9.949806	0.003117	0.015160	0.137289	0.999636	0.000035	0.000197	0.026969
05725	-0.019524	0.011911	9.898720	0.016957	-0.023433	0.086016	0.999636	0.000033	0.000197	0.026968
05726	-0.057073	0.028198	9.894205	-0.021465	-0.009226	0.081695	0.999636	0.000039	0.000194	0.026968
05727	-0.020495	0.024158	9.955931	0.015512	-0.011487	0.143276	0.999636	0.000032	0.000198	0.026966
05728	-0.057479	0.034124	9.922813	-0.022000	-0.003435	0.110326	0.999636	0.000042	0.000201	0.026975
05729	-0.020201	0.023969	9.955932	0.015898	-0.011832	0.143275	0.999636	0.000047	0.000198	0.026975
05730	-0.057168	0.033821	9.922816	-0.021617	-0.003789	0.110326	0.999636	0.000033	0.000207	0.026982
05731	-0.040106	0.070592	9.915091	-0.006494	0.033918	0.102676	0.999636	0.000043	0.000208	0.026963
05732	-0.046530	0.006805	9.928936	-0.009390	-0.030260	0.116310	0.999636	0.000042	0.000210	0.026981
05733	-0.056714	0.033252	9.922820	-0.021045	-0.004320	0.110327	0.999636	0.000037	0.000204	0.026980
05734	-0.029849	0.049643	9.949820	0.005005	0.013415	0.137291	0.999636	0.000041	0.000210	0.026979
05735	-0.018638	0.016506	9.927331	0.017969	-0.019016	0.114640	0.999636	0.000040	0.000211	0.026979
05736	-0.028232	0.036650	9.892610	0.007217	0.000781	0.080028	0.999636	0.000033	0.000215	0.026977
05737	-0.056890	0.038577	9.951433	-0.021198	0.001112	0.138960	0.999636	0.000025	0.000219	0.026975
05738	-0.056089	0.032131	9.922827	-0.020090	-0.005206	0.110329	0.999636	0.000035	0.000222	0.026975
05739	0.009212	0.026103	9.925724	0.045509	-0.007909	0.112967	0.999636	0.000045	0.000225	0.026975
05740	-0.029058	0.048611	9.949827	0.006140	0.012372	0.137291	0.999636	0.000040	0.000219	0.026974
05741	-0.056137	0.038098	9.951439	-0.020437	0.000395	0.138962	0.999636	0.000046	0.000214	0.026965
05742	-0.027207	0.035666	9.892616	0.008354	-0.000257	0.080027	0.999636	0.000038	0.000218	0.026964
05743	-0.018085	0.021328	9.955942	0.018592	-0.014267	0.143267	0.999636	0.000042	0.000226	0.026972
05744	-0.055140	0.031164	9.922836	-0.018946	-0.006283	0.110331	0.999636	0.000035	0.000230	0.026970
05745	-0.017845	0.020908	9.955944	0.018981	-0.014613	0.143265	0.999636	0.000040	0.000226	0.026971
05746	-0.027168	0.041211	9.921228	0.008197	0.005177	0.108659	0.999636	0.000044	0.000205	0.026963
05747	-0.016443	0.014352	9.927338	0.020291	-0.021089	0.114631	0.999636	0.000041	0.000218	0.026980
05748	-0.054878	0.036731	9.951451	-0.019093	-0.000856	0.138965	0.999636	0.000040	0.000216	0.026961
05749	-0.016936	0.020258	9.955947	0.019762	-0.015301	0.143263	0.999636	0.000043	0.000224	0.026969
05750	-0.026626	0.040602	9.921232	0.008965	0.004485	0.108659	0.999636	0.000053	0.000227	0.026969
05751	-0.054528	0.036417	9.951454	-0.018515	-0.001384	0.138966	0.999636	0.000052	0.000228	0.026978
05752	-0.026288	0.040202	9.921235	0.009344	0.004142	0.108659	0.999636	0.000041	0.000225	0.026967
05753	-0.015594	0.013396	9.927341	0.021454	-0.022116	0.114627	0.999636	0.000057	0.000224	0.026977
05754	-0.025846	0.039929	9.921237	0.009723	0.003796	0.108658	0.999637	0.000046	0.000220	0.026957
05755	-0.026324	0.045792	9.949848	0.008991	0.009749	0.137292	0.999636	0.000034	0.000220	0.026974
05756	-0.042294	0.002160	9.928957	-0.004707	-0.034487	0.116299	0.999637	0.000034	0.000218	0.026955
05757	-0.025242	0.039015	9.921242	0.010291	0.003271	0.108658	0.999637	0.000033	0.000219	0.026954
05758	-0.052441	0.028526	9.922858	-0.016257	-0.008760	0.110333	0.999636	0.000043	0.000222	0.026964
05759	-0.024891	0.038783	9.921244	0.010673	0.002925	0.108658	0.999636	0.000037	0.000216	0.026963
05760	-0.014142	0.011880	9.927345	0.022809	-0.023328	0.114621	0.999637	0.000037	0.000215	0.026953
05761	-0.052556	0.034144	9.951473	-0.016601	-0.003164	0.138969	0.999636	0.000029	0.000222	0.026970
05762	-0.023807	0.031619	9.892639	0.012169	-0.003721	0.080022	0.999636	0.000016	0.000231	0.026977
05763	-0.024317	0.037582	9.921250	0.011439	0.002229	0.108657	0.999636	0.000017	0.000221	0.026978
05764	-0.052079	0.033255	9.951478	-0.016023	-0.003700	0.138969	0.999636	0.000016	0.000222	0.026986
05765	-0.051165	0.026847	9.922870	-0.014907	-0.009994	0.110334	0.999636	0.000022	0.000218	0.026977
05766	-0.013840	0.016785	9.955958	0.023053	-0.018235	0.143251	0.999636	0.000025	0.000224	0.026976
05767	-0.051688	0.032837	9.951482	-0.015445	-0.004225	0.138970	0.999636	0.000022	0.000235	0.026975
05768	-0.024215	0.043000	9.949866	0.011469	0.007488	0.137291	0.999636	0.000017	0.000228	0.026965
05769	-0.012809	0.009886	9.927349	0.024563	-0.024867	0.114613	0.999636	0.000020	0.000236	0.026973
05770	-0.050692	0.025922	9.922875	-0.013943	-0.010874	0.110335	0.999636	0.000017	0.000249	0.026990
05771	-0.023293	0.036031	9.921258	0.012968	0.000853	0.108655	0.999636	0.000005	0.000247	0.026989
05772	-0.051185	0.031589	9.951488	-0.014483	-0.005109	0.138971	0.999636	0.000009	0.000253	0.026988
05773	-0.050267	0.025187	9.922879	-0.013368	-0.011401	0.110335	0.999636	0.000010	0.000243	0.026988
05774	-0.049329	0.018681	9.894269	-0.012250	-0.017696	0.081699	0.999636	0.000003	0.000248	0.026987
05775	-0.022574	0.035129	9.921263	0.013727	0.000164	0.108654	0.999636	0.000002	0.000248	0.026986
05776	-0.039914	0.004135	9.957582	-0.001717	-0.031868	0.144924	0.999636	0.000005	0.000254	0.026976
05777	-0.021482	0.028535	9.892653	0.015032	-0.006299	0.080017	0.999636	0.000002	0.000239	0.026995
05778	-0.049867	0.030366	9.951499	-0.013338	-0.006170	0.138972	0.999636	0.000002	0.000238	0.026985
05779	-0.048961	0.023800	9.922889	-0.012218	-0.012464	0.110335	0.999636	-0.000009	0.000236	0.026984
05780	-0.020717	0.027768	9.892657	0.015606	-0.006822	0.080016	0.999636	-0.000004	0.000233	0.026993
05781	-0.048481	0.023477	9.922892	-0.011830	-0.012820	0.110335	0.999636	0.000002	0.000230	0.026994
05782	-0.058884	0.049909	9.916811	-0.023660	0.013048	0.104387	0.999636	-0.000005	0.000234	0.026992
05783	-0.020870	0.033489	9.921273	0.015256	-0.001233	0.108652	0.999635	-0.000006	0.000235	0.027001
05784	-0.021407	0.039544	9.949887	0.014518	0.004703	0.137289	0.999635	-0.000007	0.000236	0.027000
05785	-0.020678	0.033116	9.921274	0.015636	-0.001575	0.108651	0.999636	-0.000006	0.000251	0.026980
05786	-0.048544	0.028616	9.951511	-0.011796	-0.007594	0.138973	0.999636	-0.000015	0.000239	0.026989
05787	-0.020266	0.032675	9.921277	0.016018	-0.001921	0.108651	0.999636	-0.000005	0.000242	0.026989
05788	-0.020101	0.032476	9.921278	0.016209	-0.002095	0.108650	0.999635	-0.000017	0.000241	0.026997
05789	-0.047216	0.021669	9.922902	-0.010292	-0.014232	0.110335	0.999636	-0.000017	0.000241	0.026996
05790	-0.047030	0.021467	9.922903	-0.010099	-0.014409	0.110335	0.999636	-0.000018	0.000240	0.026986
05791	-0.031574	0.070896	9.972433	0.002863	0.035632	0.159984	0.999636	-0.000019	0.000241	0.026995
05792	-0.046740	0.021106	9.922905	-0.009718	-0.014761	0.110335	0.999636	-0.000016	0.000247	0.026985
05793	-0.019877	0.037688	9.949897	0.016225	0.003146	0.137287	0.999635	-0.000018	0.000232	0.027004
05794	-0.046040	0.020717	9.922910	-0.009335	-0.015114	0.110335	0.999635	-0.000017	0.000222	0.027004
05795	-0.046484	0.026888	9.951525	-0.010073	-0.009181	0.138974	0.999635	-0.000007	0.000225	0.027004
05796	-0.045656	0.020482	9.922912	-0.008949	-0.015462	0.110335	0.999636	-0.000014	0.000228	0.026994
05797	-0.018926	0.036995	9.949901	0.016990	0.002460	0.137286	0.999636	-0.000015	0.000229	0.026993
05798	-0.055971	0.046631	9.916844	-0.020640	0.010211	0.104397	0.999636	-0.000016	0.000229	0.026993
05799	-0.017809	0.030309	9.921289	0.018310	-0.003985	0.108646	0.999636	-0.000021	0.000223	0.026993
05800	-0.045490	0.025728	9.951533	-0.009103	-0.010061	0.138974	0.999636	-0.000026	0.000216	0.026983
05801	-0.017179	0.029744	9.921292	0.018691	-0.004334	0.108645	0.999636	-0.000031	0.000209	0.026974
05802	-0.044930	0.025196	9.951537	-0.008719	-0.010417	0.138974	0.999636	-0.000032	0.000210	0.026982
05803	-0.017521	0.035649	9.949909	0.018143	0.001424	0.137284	0.999635	-0.000022	0.000215	0.027001
05804	-0.053882	0.039021	9.888242	-0.018563	0.003052	0.075760	0.999636	-0.000034	0.000212	0.026990
05805	-0.043682	0.018410	9.922925	-0.007211	-0.017037	0.110333	0.999636	-0.000028	0.000208	0.026990
05806	-0.026882	0.055377	9.915232	0.007540	0.020820	0.102711	0.999636	-0.000035	0.000211	0.026980
05807	-0.043351	0.017946	9.922927	-0.006827	-0.017394	0.110333	0.999636	-0.000036	0.000212	0.026979
05808	-0.043237	0.017787	9.922928	-0.006634	-0.017571	0.110333	0.999636	-0.000032	0.000218	0.026978
05809	-0.043663	0.023843	9.951546	-0.007376	-0.011650	0.138973	0.999636	-0.000035	0.000202	0.026979
05810	-0.015475	0.028043	9.921299	0.020408	-0.005886	0.108641	0.999636	-0.000028	0.000216	0.026987
05811	-0.053366	0.043843	9.916871	-0.018175	0.007906	0.104404	0.999636	-0.000039	0.000214	0.026986
05812	-0.043027	0.023149	9.951550	-0.006795	-0.012182	0.138973	0.999636	-0.000041	0.000197	0.026987
05813	-0.015487	0.033554	9.949920	0.020790	-0.001356	0.137279	0.999637	0.000015	0.000241	0.026957
05814	-0.051960	0.036872	9.888260	-0.015935	0.000244	0.075765	0.999637	0.000008	0.000244	0.026946
05815	-0.015212	0.033032	9.949922	0.021166	-0.001704	0.137278	0.999637	0.000003	0.000238	0.026945
05816	-0.052282	0.042596	9.916882	-0.016494	0.005977	0.104408	0.999637	0.000007	0.000244	0.026935
05817	-0.014173	0.026510	9.921306	0.022488	-0.008137	0.108635	0.999637	0.000012	0.000242	0.026955
05818	-0.041936	0.022000	9.951558	-0.004898	-0.014287	0.138971	0.999637	0.000012	0.000241	0.026945
05819	-0.051855	0.042137	9.916886	-0.015917	0.005448	0.104410	0.999637	0.000008	0.000252	0.026943
05820	-0.014440	0.032296	9.949925	0.022132	-0.002569	0.137276	0.999637	0.000021	0.000244	0.026945
05821	0.002432	0.069276	9.942239	0.036807	0.035324	0.129662	0.999637	0.000005	0.000237	0.026953
05822	-0.039735	0.008587	9.894326	-0.002254	-0.027158	0.081685	0.999637	-0.000002	0.000241	0.026951
05823	-0.023726	0.051714	9.915260	0.011476	0.016819	0.102715	0.999636	-0.000007	0.000236	0.026960
05824	-0.051581	0.047159	9.945515	-0.015905	0.010643	0.133055	0.999637	0.000000	0.000248	0.026950
05825	-0.012682	0.024840	9.921312	0.024023	-0.009514	0.108630	0.999636	-0.000003	0.000234	0.026969
05826	-0.013185	0.030931	9.949931	0.023280	-0.003606	0.137273	0.999637	0.000005	0.000246	0.026959
05827	-0.050201	0.040576	9.916901	-0.014400	0.004028	0.104413	0.999636	0.000009	0.000226	0.026970
05828	-0.039903	0.020041	9.951570	-0.002966	-0.016052	0.138969	0.999636	0.000006	0.000237	0.026968
05829	-0.049864	0.040171	9.916904	-0.014020	0.003672	0.104413	0.999636	0.000005	0.000237	0.026967
05830	-0.049627	0.039926	9.916907	-0.013829	0.003494	0.104414	0.999636	0.000000	0.000231	0.026967
05831	-0.022148	0.050332	9.915271	0.012986	0.015423	0.102716	0.999636	-0.000000	0.000231	0.026967
05832	-0.039875	0.025244	9.980195	-0.003128	-0.010683	0.167613	0.999636	-0.000012	0.000230	0.026975
05833	-0.038944	0.018884	9.951576	-0.001998	-0.016935	0.138968	0.999636	0.000005	0.000228	0.026967
05834	-0.021557	0.049861	9.915275	0.013553	0.014901	0.102716	0.999636	0.000004	0.000229	0.026975
05835	-0.037667	0.012469	9.922959	-0.000671	-0.023364	0.110323	0.999636	0.000008	0.000210	0.026986
05836	-0.037397	0.012395	9.922960	-0.000477	-0.023541	0.110323	0.999636	0.000015	0.000221	0.026967
05837	0.005762	0.066430	9.942257	0.039796	0.032585	0.129660	0.999636	0.000017	0.000211	0.026968
05838	-0.047654	0.038643	9.916921	-0.012304	0.002076	0.104416	0.999636	0.000012	0.000205	0.026967
05839	-0.046809	0.032160	9.888303	-0.011173	-0.004175	0.075771	0.999636	0.000009	0.000216	0.026966
05840	-0.010161	0.028493	9.949942	0.025971	-0.006033	0.137265	0.999636	0.000008	0.000217	0.026975
05841	-0.047351	0.037997	9.916925	-0.011729	0.001544	0.104417	0.999636	0.000012	0.000223	0.026965
05842	-0.037133	0.017390	9.951586	-0.000249	-0.018524	0.138966	0.999636	0.000000	0.000221	0.026964
05843	-0.020620	0.054421	9.943907	0.014322	0.019413	0.131361	0.999637	0.000008	0.000233	0.026954
05844	-0.036200	0.010691	9.922966	0.001083	-0.024942	0.110319	0.999636	-0.000008	0.000226	0.026962
05845	-0.020243	0.053811	9.943911	0.014700	0.019064	0.131361	0.999636	-0.000009	0.000226	0.026962
05846	-0.047302	0.042908	9.945555	-0.011711	0.006729	0.133064	0.999636	-0.000009	0.000227	0.026970
05847	-0.035613	0.009939	9.922969	0.001666	-0.025458	0.110318	0.999636	-0.000011	0.000228	0.026970
05848	-0.025435	-0.010621	9.957624	0.013169	-0.045519	0.144863	0.999637	-0.000014	0.000238	0.026959
05849	-0.046897	0.042113	9.945561	-0.011136	0.006204	0.133065	0.999637	-0.000029	0.000229	0.026958
05850	-0.035829	0.015212	9.951594	0.001311	-0.019924	0.138963	0.999636	-0.000030	0.000231	0.026967
05851	-0.046589	0.041538	9.945565	-0.010755	0.005845	0.133066	0.999636	-0.000033	0.000241	0.026965
05852	-0.019202	0.052061	9.943923	0.016027	0.017846	0.131361	0.999636	-0.000031	0.000231	0.026966
05853	-0.034631	0.008338	9.922974	0.002833	-0.026518	0.110315	0.999636	-0.000038	0.000236	0.026965
05854	-0.056838	0.067434	9.939542	-0.022453	0.031255	0.127172	0.999636	-0.000033	0.000232	0.026965
05855	-0.007743	0.024943	9.949954	0.028866	-0.008613	0.137255	0.999636	-0.000033	0.000232	0.026965
05856	-0.006881	0.018478	9.921332	0.030002	-0.014849	0.108607	0.999637	-0.000040	0.000236	0.026954
05857	-0.044722	0.033868	9.916953	-0.008666	-0.001280	0.104420	0.999636	-0.000056	0.000229	0.026972
05858	-0.033657	0.007083	9.922978	0.003808	-0.027395	0.110312	0.999636	-0.000046	0.000232	0.026972
05859	-0.033416	0.007007	9.922979	0.004001	-0.027568	0.110312	0.999636	-0.000045	0.000224	0.026991
05860	-0.044820	0.039546	9.945581	-0.009037	0.004249	0.133068	0.999636	-0.000048	0.000233	0.026980
05861	-0.016811	0.043880	9.915312	0.018675	0.010225	0.102713	0.999636	-0.000048	0.000233	0.026971
05862	-0.033741	0.012634	9.951605	0.003644	-0.022036	0.138958	0.999636	-0.000045	0.000239	0.026961
05863	-0.016522	0.043636	9.915314	0.019056	0.009879	0.102713	0.999636	-0.000039	0.000235	0.026962
05864	-0.044300	0.039084	9.945585	-0.008270	0.003541	0.133069	0.999637	-0.000025	0.000243	0.026952
05865	-0.032458	0.006278	9.922983	0.005171	-0.028618	0.110308	0.999636	-0.000028	0.000229	0.026972
05866	-0.032604	0.012190	9.951609	0.004421	-0.022738	0.138956	0.999637	-0.000034	0.000204	0.026955
05867	-0.043173	0.038540	9.945592	-0.007698	0.003011	0.133070	0.999637	-0.000027	0.000216	0.026945
05868	-0.043020	0.038445	9.945593	-0.007507	0.002833	0.133070	0.999637	-0.000025	0.000207	0.026954
05869	-0.004016	0.016368	9.921337	0.032514	-0.017080	0.108596	0.999637	-0.000022	0.000214	0.026954
05870	-0.041898	0.032076	9.916971	-0.006178	-0.003576	0.104421	0.999637	-0.000010	0.000206	0.026955
05871	-0.042467	0.038178	9.945597	-0.006934	0.002301	0.133070	0.999637	-0.000013	0.000217	0.026954
05872	-0.041663	0.031653	9.916973	-0.005796	-0.003929	0.104421	0.999636	-0.000024	0.000216	0.026962
05873	-0.042139	0.037606	9.945600	-0.006550	0.001949	0.133071	0.999637	-0.000018	0.000210	0.026944
05874	-0.058894	0.006344	9.981893	-0.021522	-0.030347	0.169312	0.999637	-0.000019	0.000210	0.026935
05875	-0.051812	0.057611	9.910965	-0.017562	0.021454	0.098541	0.999637	-0.000017	0.000201	0.026954
05876	-0.013559	0.041704	9.915326	0.021524	0.007627	0.102710	0.999637	-0.000020	0.000211	0.026943
05877	-0.068518	0.026115	9.947259	-0.032332	-0.011029	0.134783	0.999637	-0.000014	0.000208	0.026944
05878	-0.030196	0.010279	9.951619	0.006762	-0.024848	0.138950	0.999637	-0.000015	0.000207	0.026934
05879	-0.039547	0.024250	9.888357	-0.003502	-0.011212	0.075771	0.999637	-0.000012	0.000214	0.026934
05880	-0.040106	0.030241	9.916984	-0.004258	-0.005342	0.104421	0.999637	-0.000017	0.000209	0.026943
05881	-0.039723	0.030082	9.916986	-0.004064	-0.005515	0.104421	0.999637	-0.000008	0.000194	0.026936
05882	-0.039402	0.029965	9.916988	-0.003872	-0.005693	0.104421	0.999637	-0.000009	0.000195	0.026944
05883	-0.039742	0.035996	9.945616	-0.004629	0.000176	0.133072	0.999637	-0.000005	0.000174	0.026937
05884	-0.011626	0.040508	9.915334	0.023051	0.006244	0.102707	0.999637	-0.000004	0.000191	0.026936
05885	-0.027727	0.003009	9.922999	0.009084	-0.032116	0.110294	0.999637	-0.000002	0.000180	0.026928
05886	-0.039054	0.035478	9.945621	-0.004050	-0.000353	0.133072	0.999637	-0.000007	0.000175	0.026937
05887	-0.038093	0.029047	9.916995	-0.002908	-0.006566	0.104421	0.999637	-0.000008	0.000175	0.026927
05888	-0.038672	0.034864	9.945624	-0.003665	-0.000701	0.133072	0.999637	-0.000026	0.000178	0.026944
05889	-0.026907	0.001852	9.923001	0.009866	-0.032812	0.110291	0.999637	-0.000023	0.000184	0.026934
05890	-0.037880	0.028278	9.916999	-0.002332	-0.007098	0.104421	0.999637	-0.000015	0.000198	0.026942
05891	-0.011209	0.045251	9.943968	0.023437	0.011083	0.131356	0.999637	-0.000011	0.000179	0.026953
05892	-0.026382	0.001422	9.923003	0.010453	-0.033336	0.110289	0.999637	-0.000025	0.000187	0.026951
05893	-0.038605	0.039977	9.974259	-0.003662	0.004457	0.161725	0.999637	-0.000024	0.000177	0.026952
05894	-0.025941	0.000877	9.923004	0.010840	-0.033682	0.110288	0.999637	-0.000031	0.000181	0.026950
05895	-0.036805	0.027212	9.917006	-0.001372	-0.007972	0.104421	0.999637	-0.000021	0.000184	0.026951
05896	-0.047603	0.053502	9.911009	-0.013595	0.017732	0.098555	0.999637	-0.000032	0.000181	0.026941
05897	-0.063648	0.015971	9.918668	-0.027505	-0.020658	0.106138	0.999637	-0.000018	0.000191	0.026941
05898	-0.009979	0.043874	9.943976	0.024770	0.009875	0.131354	0.999637	-0.000019	0.000190	0.026932
05899	0.002011	0.011031	9.921345	0.038335	-0.022208	0.108565	0.999637	-0.000017	0.000182	0.026951
05900	-0.037314	0.038803	9.974268	-0.002317	0.003219	0.161725	0.999637	-0.000018	0.000181	0.026941
05901	-0.034957	0.020067	9.888384	0.000729	-0.015058	0.075767	0.999637	-0.000019	0.000182	0.026950
05902	-0.036238	0.032223	9.945642	-0.000984	-0.003168	0.133073	0.999637	-0.000019	0.000182	0.026940
05903	-0.035335	0.025846	9.917015	0.000160	-0.009377	0.104419	0.999637	-0.000020	0.000183	0.026949
05904	-0.035242	0.025687	9.917015	0.000353	-0.009554	0.104419	0.999637	-0.000017	0.000191	0.026958
05905	-0.007941	0.036506	9.915353	0.027050	0.002634	0.102699	0.999637	-0.000011	0.000185	0.026940
05906	-0.034626	0.025501	9.917018	0.000738	-0.009906	0.104419	0.999637	-0.000007	0.000164	0.026933
05907	-0.034958	0.031412	9.945649	-0.000022	-0.004052	0.133072	0.999637	-0.000018	0.000164	0.026951
05908	-0.006941	0.035958	9.915356	0.027624	0.002114	0.102697	0.999637	-0.000008	0.000166	0.026951
05909	-0.061844	0.020232	9.947317	-0.026134	-0.016779	0.134794	0.999637	-0.000005	0.000173	0.026951
05910	-0.033871	0.024827	9.917022	0.001511	-0.010608	0.104418	0.999637	-0.000006	0.000174	0.026950
05911	-0.061618	0.019909	9.947319	-0.025747	-0.017136	0.134794	0.999637	-0.000002	0.000181	0.026950
05912	-0.034429	0.030621	9.945654	0.000941	-0.004930	0.133072	0.999637	-0.000010	0.000186	0.026958
05913	-0.043926	0.044419	9.882408	-0.009428	0.008699	0.069909	0.999637	-0.000017	0.000190	0.026957
05914	-0.006996	0.041102	9.943990	0.027816	0.007114	0.131349	0.999637	-0.000005	0.000182	0.026949
05915	-0.033851	0.029978	9.945658	0.001519	-0.005457	0.133072	0.999636	-0.000016	0.000182	0.026967
05916	-0.033622	0.029735	9.945659	0.001711	-0.005634	0.133071	0.999637	-0.000010	0.000177	0.026958
05917	-0.070833	0.038939	9.912713	-0.036114	0.001612	0.100289	0.999637	-0.000011	0.000176	0.026949
05918	-0.005979	0.040380	9.943994	0.028578	0.006422	0.131347	0.999637	-0.000009	0.000166	0.026950
05919	-0.032818	0.029243	9.945663	0.002284	-0.006161	0.133071	0.999637	-0.000010	0.000166	0.026949
05920	-0.032665	0.029149	9.945664	0.002477	-0.006338	0.133071	0.999637	0.000000	0.000169	0.026950
05921	-0.005534	0.039941	9.943996	0.029149	0.005902	0.131346	0.999637	-0.000009	0.000183	0.026938
05922	-0.031918	0.022626	9.917034	0.003820	-0.012714	0.104415	0.999637	0.000001	0.000188	0.026957
05923	-0.031691	0.022658	9.917035	0.004010	-0.012890	0.104415	0.999637	0.000013	0.000179	0.026949
05924	-0.031373	0.022651	9.917036	0.004203	-0.013066	0.104414	0.999637	0.000019	0.000175	0.026941
05925	-0.031880	0.028681	9.945668	0.003438	-0.007222	0.133070	0.999637	0.000018	0.000175	0.026941
05926	-0.030889	0.022443	9.917038	0.004589	-0.013417	0.104414	0.999637	0.000031	0.000168	0.026942
05927	-0.058479	0.017545	9.947342	-0.022645	-0.020008	0.134796	0.999637	0.000029	0.000169	0.026951
05928	-0.031106	0.028463	9.945671	0.004017	-0.007746	0.133069	0.999637	0.000042	0.000159	0.026935
05929	-0.041029	0.048651	9.911063	-0.007357	0.011895	0.098570	0.999637	0.000039	0.000143	0.026936
05930	-0.003436	0.039107	9.944000	0.030868	0.004353	0.131341	0.999637	0.000034	0.000165	0.026943
05931	-0.056823	0.010719	9.918717	-0.020906	-0.026736	0.106140	0.999637	0.000036	0.000153	0.026925
05932	-0.030190	0.027815	9.945676	0.004790	-0.008446	0.133068	0.999637	0.000046	0.000157	0.026935
05933	-0.030047	0.027721	9.945676	0.004982	-0.008618	0.133068	0.999637	0.000045	0.000157	0.026935
05934	-0.029137	0.021360	9.917045	0.006135	-0.014808	0.104411	0.999637	0.000044	0.000158	0.026934
05935	-0.040082	0.047599	9.911072	-0.006220	0.010840	0.098572	0.999637	0.000043	0.000158	0.026934
05936	-0.039857	0.047356	9.911074	-0.006030	0.010663	0.098573	0.999637	0.000038	0.000153	0.026944
05937	-0.028474	0.020847	9.917048	0.006713	-0.015331	0.104410	0.999637	0.000055	0.000151	0.026936
05938	-0.040229	0.053284	9.939709	-0.006614	0.016321	0.127231	0.999637	0.000041	0.000160	0.026943
05939	-0.028186	0.020493	9.917050	0.007098	-0.015682	0.104409	0.999637	0.000053	0.000152	0.026935
05940	-0.028655	0.026580	9.945684	0.006329	-0.009848	0.133066	0.999637	0.000053	0.000152	0.026935
05941	-0.027690	0.020180	9.917052	0.007482	-0.016034	0.104408	0.999637	0.000048	0.000147	0.026944
05942	-0.039301	0.052587	9.939717	-0.005860	0.015610	0.127232	0.999637	0.000054	0.000143	0.026945
05943	-0.055022	0.014976	9.947366	-0.019535	-0.022870	0.134797	0.999637	0.000053	0.000144	0.026945
05944	-0.027087	0.019603	9.917055	0.008063	-0.016560	0.104407	0.999636	0.000046	0.000150	0.026962
05945	-0.038709	0.052004	9.939722	-0.005292	0.015084	0.127233	0.999637	0.000054	0.000135	0.026955
05946	-0.026572	0.019292	9.917057	0.008446	-0.016905	0.104406	0.999637	0.000051	0.000144	0.026935
05947	-0.011429	0.062688	9.938045	0.021521	0.027241	0.125502	0.999637	0.000047	0.000156	0.026952
05948	-0.026584	0.018769	9.917058	0.008831	-0.017250	0.104405	0.999637	0.000040	0.000160	0.026942
05949	-0.027189	0.024660	9.945693	0.008063	-0.011418	0.133063	0.999637	0.000040	0.000161	0.026951
05950	-0.037457	0.044727	9.911096	-0.003380	0.008201	0.098576	0.999637	0.000039	0.000162	0.026951
05951	-0.037326	0.044464	9.911097	-0.003190	0.008027	0.098576	0.999637	0.000032	0.000166	0.026950
05952	-0.027453	0.030149	9.974330	0.007679	-0.005942	0.161721	0.999637	0.000037	0.000162	0.026950
05953	-0.037077	0.044045	9.911100	-0.002808	0.007681	0.098577	0.999637	0.000028	0.000176	0.026939
05954	-0.026509	0.023517	9.945697	0.009031	-0.012288	0.133061	0.999637	0.000029	0.000168	0.026959
05955	-0.036562	0.043518	9.911105	-0.002425	0.007332	0.098577	0.999637	0.000020	0.000155	0.026950
05956	-0.036317	0.043277	9.911106	-0.002235	0.007155	0.098577	0.999637	0.000024	0.000162	0.026950
05957	-0.052750	0.011720	9.947383	-0.016805	-0.025353	0.134796	0.999637	0.000019	0.000156	0.026950
